sep=\t
Sampling Freq: 100Hz, 0.01 seconds between each sample
AO	Average AO	PW	Average PW	Pd/Pa
76.700	236.900	52.000	68.700	0.290
76.600	235.600	51.600	68.500	0.291
76.200	234.300	51.300	68.400	0.292
75.700	232.900	50.900	68.300	0.293
75.200	231.600	50.400	68.200	0.294
74.900	230.200	50.100	68.000	0.295
74.600	228.900	49.800	67.900	0.297
74.000	227.500	49.500	67.800	0.298
73.600	226.200	49.200	67.700	0.299
73.400	224.800	48.800	67.600	0.301
73.000	223.500	48.300	67.500	0.302
72.500	222.100	48.000	67.400	0.303
72.100	220.800	48.000	67.300	0.305
71.900	219.400	47.700	67.200	0.306
71.500	218.100	47.300	67.100	0.308
71.000	216.700	47.200	67.000	0.309
70.700	215.400	47.200	66.900	0.311
70.400	214.000	47.200	66.900	0.312
69.900	212.600	46.700	66.800	0.314
69.500	211.300	46.400	66.700	0.316
69.300	209.900	46.200	66.600	0.317
69.000	208.600	45.900	66.600	0.319
68.500	207.200	45.800	66.500	0.321
68.100	205.800	45.700	66.400	0.323
67.900	204.400	45.500	66.400	0.325
67.600	203.100	45.200	66.300	0.326
67.100	201.700	45.000	66.200	0.328
66.800	200.300	44.700	66.200	0.330
66.600	199.000	44.500	66.100	0.332
66.100	197.600	44.200	66.000	0.334
65.700	196.200	44.100	66.000	0.336
65.600	194.800	44.100	65.900	0.338
65.200	193.500	43.700	65.900	0.340
64.700	192.100	43.600	65.800	0.343
64.500	190.700	43.500	65.700	0.345
64.300	189.300	43.200	65.700	0.347
63.900	187.900	43.000	65.600	0.349
63.500	186.600	42.700	65.600	0.352
63.300	185.200	42.500	65.500	0.354
62.900	183.800	42.300	65.500	0.356
62.500	182.400	42.100	65.400	0.359
62.300	181.000	41.900	65.400	0.361
62.100	179.600	41.700	65.300	0.364
61.600	178.200	41.500	65.300	0.366
61.300	176.800	41.300	65.200	0.369
61.200	175.500	41.300	65.200	0.372
60.800	174.100	41.200	65.200	0.374
60.600	172.700	41.200	65.100	0.377
60.500	171.300	41.600	65.100	0.380
60.100	169.900	41.700	65.000	0.383
59.800	168.500	41.500	65.000	0.386
59.700	167.100	41.800	64.900	0.389
59.400	165.700	42.000	64.900	0.392
59.000	164.300	41.800	64.900	0.395
58.700	162.900	41.800	64.800	0.398
58.500	161.500	41.500	64.800	0.401
58.100	160.100	41.200	64.700	0.404
57.900	158.700	40.900	64.700	0.408
57.700	157.300	40.600	64.700	0.411
57.200	155.900	40.100	64.600	0.415
57.000	154.500	40.200	64.600	0.418
56.700	153.100	39.900	64.600	0.422
56.300	151.700	39.300	64.500	0.425
56.400	150.200	39.200	64.500	0.429
56.600	148.800	39.500	64.400	0.433
57.000	147.400	39.900	64.400	0.437
58.200	146.000	40.200	64.300	0.441
59.400	144.600	41.300	64.300	0.444
60.000	143.200	44.000	64.200	0.448
60.500	141.800	48.300	64.100	0.452
64.800	140.500	52.600	64.100	0.456
68.500	139.200	56.600	64.000	0.460
72.700	137.900	61.000	63.900	0.463
76.600	136.700	65.500	63.800	0.467
80.300	135.400	70.000	63.800	0.471
83.700	134.300	74.100	63.700	0.474
86.700	133.100	77.800	63.700	0.478
89.100	132.000	81.200	63.600	0.482
91.400	131.000	83.600	63.600	0.485
93.400	129.900	85.300	63.500	0.489
95.600	128.900	86.900	63.500	0.492
97.400	127.900	88.500	63.400	0.496
99.400	126.900	90.500	63.400	0.499
100.700	126.000	92.900	63.300	0.503
101.800	125.000	94.800	63.300	0.506
103.300	124.100	96.100	63.300	0.510
104.400	123.300	97.200	63.200	0.513
105.200	122.400	98.300	63.200	0.516
105.700	121.500	99.600	63.200	0.520
105.900	120.700	100.500	63.100	0.523
106.000	119.900	101.200	63.100	0.526
105.400	119.100	101.900	63.100	0.529
104.700	118.400	102.000	63.100	0.533
103.600	117.600	101.700	63.100	0.536
102.100	116.800	101.100	63.000	0.540
100.100	116.100	100.100	63.100	0.543
97.700	115.400	98.900	63.100	0.547
95.000	114.600	96.900	63.100	0.550
92.300	113.900	94.700	63.100	0.554
90.500	113.200	92.300	63.100	0.558
88.500	112.500	89.000	63.100	0.561
86.700	111.800	85.900	63.100	0.565
85.400	111.100	83.600	63.200	0.568
84.400	110.400	81.600	63.200	0.572
83.200	109.800	80.200	63.200	0.575
82.300	109.100	79.600	63.200	0.579
81.300	108.500	79.000	63.200	0.583
80.400	107.800	77.900	63.200	0.586
79.300	107.200	76.700	63.200	0.590
78.300	106.600	75.100	63.200	0.593
77.200	106.000	73.800	63.200	0.597
76.200	105.400	72.500	63.300	0.600
75.200	104.800	71.200	63.300	0.604
74.200	104.200	70.100	63.300	0.608
73.300	103.600	68.700	63.300	0.611
72.400	103.100	67.000	63.300	0.615
71.500	102.500	65.700	63.300	0.618
70.600	101.900	64.400	63.400	0.622
69.800	101.400	63.200	63.400	0.625
68.900	100.900	62.100	63.400	0.628
68.100	100.400	61.200	63.400	0.632
67.300	99.800	60.500	63.400	0.635
66.600	99.300	59.700	63.400	0.639
65.800	98.800	59.200	63.400	0.642
65.200	98.300	58.600	63.500	0.645
64.500	97.800	57.900	63.500	0.649
63.900	97.400	57.400	63.500	0.652
63.300	96.900	56.800	63.500	0.655
62.600	96.400	56.100	63.500	0.659
62.100	96.000	55.600	63.500	0.662
61.600	95.500	55.000	63.500	0.665
61.200	95.100	54.400	63.500	0.668
60.600	94.600	53.900	63.500	0.671
60.100	94.200	53.600	63.500	0.674
59.600	93.800	53.100	63.500	0.677
59.200	93.400	52.700	63.500	0.680
58.700	93.000	52.200	63.500	0.684
58.300	92.600	51.700	63.600	0.687
57.800	92.200	51.200	63.600	0.689
57.500	91.800	50.900	63.600	0.692
57.000	91.400	50.500	63.600	0.695
56.600	91.000	50.200	63.600	0.698
56.400	90.700	50.100	63.600	0.701
56.100	90.300	49.700	63.500	0.704
55.800	89.900	49.500	63.500	0.707
55.700	89.600	49.300	63.500	0.709
55.700	89.200	49.100	63.500	0.712
55.400	88.900	49.100	63.500	0.715
55.100	88.600	49.100	63.500	0.717
54.900	88.200	49.100	63.500	0.720
54.600	87.900	49.300	63.500	0.723
54.100	87.600	49.000	63.500	0.725
53.600	87.300	48.800	63.500	0.728
53.200	87.000	48.600	63.500	0.730
52.700	86.700	48.200	63.500	0.733
52.100	86.400	48.000	63.500	0.735
51.600	86.100	47.700	63.500	0.738
51.100	85.800	47.300	63.500	0.741
50.500	85.500	46.700	63.500	0.743
50.100	85.200	46.300	63.500	0.745
49.600	84.900	45.900	63.500	0.748
49.300	84.600	45.600	63.500	0.750
49.600	84.400	45.500	63.500	0.753
49.800	84.100	45.200	63.500	0.755
50.300	83.800	45.300	63.500	0.757
52.400	83.600	45.800	63.400	0.759
56.500	83.300	46.700	63.400	0.761
60.500	83.100	47.600	63.400	0.762
63.600	82.900	50.200	63.300	0.764
67.200	82.700	54.200	63.200	0.765
71.600	82.500	58.300	63.200	0.766
75.300	82.300	62.300	63.100	0.767
80.200	82.600	67.200	63.200	0.765
83.600	82.400	72.300	63.200	0.767
86.600	82.300	75.700	63.200	0.768
89.500	82.200	78.400	63.200	0.769
92.000	82.100	80.800	63.200	0.770
94.000	81.900	83.300	63.200	0.771
95.900	81.800	85.700	63.100	0.772
97.600	81.700	87.500	63.100	0.772
99.100	81.600	89.600	63.100	0.773
101.000	81.600	91.300	63.100	0.774
102.200	81.500	92.500	63.100	0.775
103.400	81.400	94.500	63.100	0.775
104.600	81.300	96.100	63.100	0.776
105.500	81.200	97.200	63.100	0.776
106.300	81.200	98.700	63.100	0.777
106.700	81.100	99.700	63.100	0.777
106.900	81.000	100.500	63.000	0.778
106.800	81.000	101.000	63.000	0.778
106.200	80.900	101.400	63.000	0.779
105.400	80.800	101.500	63.000	0.780
104.000	80.800	101.300	63.000	0.780
102.100	80.700	100.700	63.000	0.781
99.800	80.600	99.600	63.000	0.781
97.000	80.500	97.900	63.000	0.782
93.900	80.400	95.900	63.000	0.783
91.500	80.300	93.600	63.000	0.784
89.500	80.200	90.600	63.000	0.785
87.500	80.100	86.900	63.000	0.786
85.800	80.000	83.700	63.000	0.787
84.600	79.900	81.500	63.000	0.789
83.600	79.800	79.600	63.000	0.790
82.500	79.700	78.500	63.000	0.791
81.500	79.600	77.800	63.000	0.792
80.600	79.400	76.900	63.000	0.793
79.500	79.300	75.400	63.000	0.794
78.400	79.200	74.100	63.000	0.795
77.300	79.100	72.900	63.000	0.796
76.100	79.000	71.400	63.000	0.798
75.000	78.800	69.800	63.000	0.799
73.800	78.700	68.200	63.000	0.800
72.800	78.600	66.600	63.000	0.801
71.800	78.500	64.900	63.000	0.803
70.700	78.300	63.400	63.000	0.804
69.800	78.200	62.200	63.000	0.805
68.900	78.100	61.100	63.000	0.806
68.000	78.000	60.000	63.000	0.808
67.100	77.800	59.300	62.900	0.809
66.300	77.700	58.400	62.900	0.810
65.600	77.600	57.700	62.900	0.811
64.800	77.400	57.300	62.900	0.813
64.200	77.300	56.700	62.900	0.814
63.600	77.200	56.100	62.900	0.815
63.000	77.000	55.600	62.900	0.816
62.400	76.900	55.100	62.900	0.818
61.900	76.800	54.400	62.900	0.819
61.300	76.700	54.200	62.900	0.820
60.800	76.500	53.900	62.900	0.821
60.300	76.400	53.400	62.900	0.823
59.800	76.300	52.900	62.900	0.824
59.400	76.200	52.400	62.900	0.825
59.000	76.000	51.900	62.800	0.826
58.400	75.900	51.500	62.800	0.828
58.000	75.800	51.100	62.800	0.829
57.600	75.700	50.700	62.800	0.830
57.200	75.600	50.600	62.800	0.831
56.800	75.400	50.100	62.800	0.833
56.400	75.300	49.500	62.800	0.834
56.100	75.200	49.500	62.800	0.835
55.800	75.100	49.100	62.800	0.836
55.500	75.000	48.700	62.800	0.837
55.200	74.800	48.500	62.700	0.838
55.100	74.700	48.700	62.700	0.839
55.000	74.600	48.700	62.700	0.840
54.800	74.500	48.600	62.700	0.841
54.700	74.400	48.500	62.700	0.842
54.600	74.300	48.700	62.600	0.843
54.600	74.200	48.600	62.600	0.844
54.200	74.000	48.500	62.600	0.845
53.700	73.900	48.300	62.500	0.846
53.300	73.800	48.300	62.500	0.846
52.900	73.700	48.100	62.400	0.847
52.400	73.500	48.200	62.300	0.847
51.900	73.400	47.600	62.200	0.847
51.500	73.300	47.300	62.100	0.847
51.000	73.100	47.100	62.000	0.848
50.600	73.000	47.100	61.900	0.848
50.200	72.900	46.600	61.800	0.848
50.000	72.700	46.100	61.600	0.848
50.000	72.600	46.000	61.500	0.848
50.200	72.500	45.800	61.400	0.847
50.400	72.300	45.800	61.300	0.847
51.700	72.200	46.200	61.200	0.847
55.400	72.100	46.800	61.100	0.847
59.700	72.000	47.800	60.900	0.847
63.000	71.900	49.500	60.800	0.846
65.400	71.800	53.100	60.800	0.846
69.900	71.800	57.300	60.700	0.846
76.700	71.700	61.500	60.700	0.846
80.000	71.700	66.100	60.700	0.846
83.400	71.700	71.600	60.700	0.847
86.900	71.700	75.800	60.700	0.847
91.000	71.700	78.500	60.800	0.847
93.300	71.700	81.500	60.800	0.848
95.300	71.800	84.400	60.900	0.848
97.400	71.800	86.900	60.900	0.849
99.200	71.900	88.600	61.000	0.849
101.000	71.900	90.400	61.100	0.850
102.700	72.000	92.200	61.200	0.850
104.300	72.000	93.900	61.300	0.851
105.700	72.100	95.800	61.400	0.852
107.000	72.200	97.600	61.500	0.853
108.000	72.300	99.100	61.700	0.853
108.900	72.400	100.600	61.800	0.854
109.600	72.500	101.700	62.000	0.855
109.800	72.600	102.700	62.100	0.856
109.900	72.700	103.500	62.300	0.857
109.600	72.700	104.100	62.400	0.858
108.800	72.800	104.300	62.600	0.859
107.500	72.900	104.400	62.800	0.861
106.100	73.000	103.800	62.900	0.862
104.200	73.100	103.200	63.100	0.863
101.600	73.200	102.000	63.300	0.864
98.500	73.300	100.100	63.400	0.866
95.200	73.300	98.200	63.600	0.867
93.200	73.400	95.700	63.700	0.869
91.100	73.400	92.500	63.900	0.870
89.000	73.500	89.000	64.000	0.871
87.500	73.500	85.900	64.100	0.872
86.600	73.500	83.800	64.200	0.873
85.600	73.600	81.900	64.300	0.874
84.700	73.600	80.900	64.400	0.875
83.900	73.600	80.300	64.500	0.876
82.800	73.700	79.500	64.600	0.877
81.800	73.700	78.400	64.700	0.878
80.700	73.700	76.900	64.800	0.879
79.600	73.700	75.400	64.900	0.880
78.700	73.800	74.000	65.000	0.881
77.400	73.800	72.500	65.100	0.882
76.300	73.800	71.200	65.200	0.883
75.300	73.800	69.600	65.200	0.884
74.400	73.800	68.200	65.300	0.885
73.300	73.800	67.000	65.400	0.885
72.400	73.800	65.800	65.400	0.886
71.600	73.800	64.700	65.500	0.887
70.800	73.800	63.500	65.600	0.888
70.000	73.800	62.400	65.600	0.888
69.100	73.800	61.500	65.700	0.889
68.400	73.800	60.900	65.700	0.890
67.700	73.800	60.400	65.800	0.891
66.900	73.800	59.800	65.800	0.891
66.300	73.800	59.300	65.900	0.892
65.800	73.800	58.600	65.900	0.893
65.200	73.800	58.100	65.900	0.893
64.600	73.800	57.600	66.000	0.894
64.000	73.800	57.100	66.000	0.895
63.500	73.800	56.800	66.100	0.895
63.100	73.800	56.200	66.100	0.896
62.500	73.800	55.800	66.200	0.897
62.000	73.800	55.300	66.200	0.897
61.600	73.800	54.800	66.200	0.898
61.100	73.800	54.700	66.300	0.899
60.600	73.700	54.400	66.300	0.899
60.100	73.700	54.000	66.400	0.900
59.700	73.700	53.500	66.400	0.901
59.300	73.700	53.200	66.400	0.901
58.900	73.700	52.900	66.500	0.902
58.300	73.700	52.500	66.500	0.902
58.000	73.700	52.100	66.500	0.903
57.700	73.700	51.800	66.600	0.904
57.400	73.600	51.500	66.600	0.904
57.200	73.600	51.200	66.600	0.905
57.100	73.600	51.000	66.700	0.906
56.600	73.600	50.800	66.700	0.906
56.500	73.600	50.800	66.700	0.907
56.600	73.600	50.800	66.800	0.907
56.200	73.600	50.900	66.800	0.908
55.900	73.600	50.600	66.800	0.908
55.600	73.500	50.400	66.900	0.909
55.200	73.500	50.600	66.900	0.910
54.800	73.500	50.700	66.900	0.910
54.100	73.500	50.400	66.900	0.911
53.600	73.500	50.100	67.000	0.911
53.200	73.500	49.800	67.000	0.912
52.700	73.500	49.400	67.000	0.913
52.100	73.400	49.000	67.100	0.913
51.600	73.400	48.500	67.100	0.914
51.100	73.400	48.100	67.100	0.914
50.800	73.400	47.700	67.100	0.915
51.000	73.400	47.600	67.200	0.916
51.200	73.300	47.500	67.200	0.916
52.200	73.300	47.500	67.200	0.917
54.800	73.300	47.800	67.300	0.917
59.000	73.300	48.800	67.300	0.918
62.600	73.300	50.100	67.300	0.918
65.800	73.300	52.400	67.300	0.918
68.800	73.400	56.300	67.300	0.918
75.200	73.400	60.400	67.300	0.918
79.900	73.400	64.700	67.400	0.918
83.400	73.400	69.500	67.400	0.917
87.000	73.500	74.300	67.400	0.917
90.500	73.500	78.300	67.400	0.917
93.700	73.500	81.300	67.400	0.917
96.100	73.500	84.100	67.400	0.917
98.300	73.500	86.800	67.400	0.917
100.200	73.600	89.100	67.400	0.917
102.200	73.600	91.200	67.500	0.917
104.100	73.600	93.000	67.500	0.917
105.900	73.600	95.200	67.500	0.916
107.300	73.700	97.400	67.500	0.916
108.800	73.700	99.100	67.500	0.916
110.100	73.700	100.700	67.500	0.916
111.200	73.700	102.200	67.500	0.916
112.000	73.700	103.400	67.600	0.916
112.500	73.800	104.600	67.600	0.916
112.700	73.800	105.800	67.600	0.916
112.700	73.800	106.500	67.600	0.916
112.100	73.800	107.100	67.600	0.916
111.300	73.900	107.300	67.700	0.916
110.100	73.900	107.200	67.700	0.916
108.400	73.900	106.800	67.700	0.916
106.200	73.900	105.900	67.700	0.916
103.400	73.900	104.700	67.700	0.916
100.200	74.000	102.900	67.700	0.916
96.700	74.000	100.700	67.800	0.916
94.400	74.000	97.900	67.800	0.916
92.300	74.000	94.600	67.800	0.916
90.100	74.000	90.700	67.800	0.916
88.400	74.000	87.000	67.800	0.916
87.500	74.000	84.400	67.800	0.916
86.400	74.000	82.700	67.900	0.916
86.400	74.100	81.400	67.900	0.916
85.400	74.100	80.600	67.900	0.916
84.300	74.100	79.500	67.900	0.916
83.300	74.100	78.000	67.900	0.916
82.200	74.100	76.700	67.900	0.916
81.100	74.100	75.300	67.900	0.916
80.000	74.100	73.900	67.900	0.916
78.900	74.200	72.100	67.900	0.916
77.800	74.200	70.400	67.900	0.915
76.700	74.200	69.000	67.900	0.915
75.600	74.200	67.400	67.900	0.915
74.600	74.200	66.000	67.900	0.915
73.800	74.200	65.100	67.900	0.915
72.800	74.200	64.100	67.900	0.915
71.800	74.200	63.000	67.900	0.915
71.000	74.200	62.300	67.900	0.915
70.300	74.200	61.700	67.900	0.915
69.500	74.300	60.900	67.900	0.915
68.600	74.300	60.300	67.900	0.915
67.900	74.300	59.700	67.900	0.914
67.200	74.300	59.200	67.900	0.914
66.600	74.300	58.600	67.900	0.914
65.900	74.300	57.700	67.900	0.914
65.400	74.300	57.100	67.900	0.914
64.800	74.300	56.700	67.900	0.914
64.300	74.300	56.400	67.900	0.914
63.700	74.300	55.900	68.000	0.914
63.200	74.300	55.600	68.000	0.914
62.700	74.400	55.200	68.000	0.914
62.100	74.400	54.900	68.000	0.914
61.700	74.400	54.500	68.000	0.914
61.300	74.400	54.300	68.000	0.914
60.800	74.400	53.800	68.000	0.914
60.200	74.400	53.400	68.000	0.914
59.700	74.400	52.900	68.000	0.914
59.300	74.400	52.500	68.000	0.914
58.900	74.400	52.300	68.000	0.914
58.400	74.400	52.000	68.000	0.914
58.100	74.400	51.700	68.000	0.914
57.800	74.400	51.400	68.000	0.914
57.500	74.400	50.900	68.000	0.914
57.200	74.500	50.500	68.000	0.914
57.000	74.500	50.700	68.100	0.914
56.900	74.500	50.600	68.100	0.914
56.600	74.500	50.400	68.100	0.914
56.400	74.500	50.400	68.100	0.914
56.300	74.500	50.400	68.100	0.914
56.000	74.500	50.500	68.100	0.914
55.500	74.500	50.400	68.100	0.914
55.200	74.500	50.300	68.100	0.914
54.800	74.500	50.000	68.100	0.914
54.300	74.500	49.900	68.100	0.914
53.800	74.500	49.600	68.100	0.914
53.300	74.500	49.100	68.100	0.914
52.600	74.600	48.500	68.100	0.914
52.000	74.600	48.000	68.100	0.914
51.600	74.600	47.800	68.100	0.914
51.100	74.600	47.500	68.100	0.914
50.600	74.600	47.000	68.200	0.914
50.600	74.600	46.800	68.200	0.914
50.900	74.600	46.800	68.200	0.914
51.600	74.600	47.500	68.200	0.914
53.700	74.500	48.400	68.200	0.915
57.700	74.500	49.200	68.200	0.915
61.900	74.500	51.000	68.200	0.915
65.300	74.500	54.600	68.100	0.915
69.100	74.500	58.700	68.100	0.915
72.800	74.400	62.900	68.100	0.915
78.100	74.400	67.500	68.100	0.915
82.900	74.500	72.400	68.100	0.915
86.300	74.500	76.800	68.200	0.915
89.500	74.500	80.100	68.200	0.915
92.400	74.500	82.800	68.200	0.915
95.400	74.600	85.600	68.200	0.915
97.500	74.600	87.700	68.200	0.915
99.500	74.600	89.800	68.300	0.915
101.400	74.600	91.900	68.300	0.915
103.200	74.600	93.900	68.300	0.915
104.700	74.700	95.700	68.300	0.915
106.000	74.700	97.400	68.400	0.915
107.500	74.700	99.300	68.400	0.915
108.700	74.700	100.600	68.400	0.916
109.900	74.700	102.000	68.400	0.916
110.600	74.700	103.200	68.400	0.916
111.100	74.800	104.000	68.500	0.916
111.300	74.800	104.900	68.500	0.916
111.300	74.800	105.600	68.500	0.916
110.800	74.800	106.100	68.500	0.916
110.000	74.800	105.900	68.500	0.916
108.800	74.800	105.400	68.500	0.916
107.200	74.800	104.700	68.500	0.916
104.900	74.800	103.400	68.600	0.916
102.100	74.900	101.600	68.600	0.916
98.900	74.900	99.400	68.600	0.916
95.800	74.900	96.900	68.600	0.916
93.700	74.900	93.500	68.600	0.916
91.400	74.900	89.700	68.600	0.916
89.400	74.900	86.400	68.600	0.916
87.900	74.900	83.700	68.600	0.915
86.800	74.900	81.900	68.600	0.915
85.700	74.900	80.600	68.600	0.915
84.700	74.900	79.600	68.600	0.915
83.600	74.900	78.700	68.600	0.915
82.600	74.900	77.300	68.600	0.915
81.500	74.900	75.900	68.600	0.915
80.400	74.900	74.100	68.600	0.915
79.300	75.000	72.500	68.600	0.915
78.100	75.000	70.600	68.600	0.915
76.900	75.000	68.900	68.600	0.915
75.900	75.000	67.300	68.600	0.915
74.800	75.000	65.900	68.600	0.914
73.800	75.000	64.500	68.600	0.914
72.800	75.000	63.100	68.600	0.914
71.900	75.000	62.400	68.600	0.914
71.000	75.000	61.600	68.600	0.914
70.100	75.000	60.700	68.600	0.914
69.200	75.000	60.000	68.600	0.914
68.500	75.000	59.300	68.600	0.914
67.700	75.000	58.500	68.600	0.914
67.000	75.000	57.800	68.600	0.914
66.300	75.000	57.200	68.600	0.914
65.700	75.100	56.800	68.600	0.914
65.000	75.100	56.300	68.600	0.914
64.400	75.100	55.700	68.600	0.914
63.800	75.100	55.200	68.600	0.914
63.300	75.100	54.700	68.600	0.914
62.700	75.100	54.400	68.600	0.914
62.100	75.100	54.000	68.600	0.913
61.800	75.100	53.600	68.600	0.913
61.300	75.100	53.200	68.600	0.913
60.700	75.100	52.600	68.600	0.913
60.200	75.100	52.100	68.600	0.913
59.800	75.100	51.700	68.600	0.913
59.300	75.100	51.600	68.600	0.913
58.800	75.100	51.300	68.600	0.913
58.400	75.100	50.800	68.600	0.913
58.000	75.100	50.600	68.600	0.913
57.600	75.200	50.300	68.600	0.913
57.100	75.200	50.000	68.600	0.913
56.900	75.200	49.700	68.600	0.913
56.700	75.200	49.400	68.600	0.913
56.600	75.200	49.300	68.600	0.913
56.400	75.200	49.000	68.600	0.913
56.100	75.200	48.900	68.600	0.913
56.100	75.200	48.900	68.600	0.913
56.100	75.200	48.900	68.600	0.913
55.800	75.200	48.900	68.600	0.913
55.300	75.200	49.000	68.600	0.913
55.100	75.200	48.800	68.600	0.913
54.700	75.200	48.700	68.600	0.913
54.100	75.200	48.500	68.600	0.913
53.600	75.200	48.400	68.600	0.913
53.300	75.200	48.500	68.600	0.913
52.800	75.200	47.900	68.600	0.913
52.200	75.200	47.600	68.600	0.913
51.700	75.200	47.400	68.700	0.913
51.400	75.200	47.100	68.700	0.913
51.100	75.200	47.000	68.700	0.913
50.700	75.200	47.100	68.700	0.913
51.000	75.200	46.900	68.700	0.913
51.400	75.200	47.000	68.700	0.913
52.200	75.200	47.700	68.700	0.913
55.200	75.200	48.900	68.700	0.913
59.600	75.200	49.900	68.700	0.913
63.400	75.200	52.300	68.700	0.913
66.400	75.300	56.400	68.700	0.913
69.800	75.300	60.300	68.700	0.913
75.300	75.200	64.300	68.700	0.913
80.900	75.100	69.500	68.700	0.914
84.000	75.100	74.600	68.600	0.914
87.100	75.100	78.000	68.600	0.914
90.500	75.000	80.500	68.600	0.914
93.300	75.000	83.200	68.600	0.914
95.800	75.000	86.000	68.600	0.914
97.700	75.000	88.200	68.600	0.914
99.600	75.000	89.900	68.500	0.914
101.300	75.000	91.900	68.500	0.914
102.800	74.900	93.600	68.500	0.914
104.500	74.900	95.300	68.500	0.914
105.900	74.900	97.200	68.500	0.914
107.100	74.900	98.700	68.500	0.914
108.200	74.900	100.100	68.500	0.914
109.100	74.900	101.500	68.500	0.914
109.800	74.900	102.700	68.500	0.914
110.200	74.900	103.600	68.500	0.914
110.200	74.900	103.900	68.500	0.914
109.900	74.900	104.400	68.500	0.914
109.400	75.000	104.500	68.500	0.913
108.300	75.000	104.400	68.500	0.913
106.700	75.000	103.700	68.500	0.913
104.600	75.000	102.700	68.500	0.913
102.000	75.100	101.400	68.500	0.913
99.000	75.100	99.500	68.500	0.913
95.500	75.100	96.800	68.600	0.913
93.500	75.100	93.600	68.600	0.913
91.600	75.200	90.100	68.600	0.913
89.600	75.200	86.700	68.600	0.913
88.000	75.200	84.400	68.600	0.913
87.100	75.200	82.500	68.700	0.913
86.300	75.200	81.200	68.700	0.913
85.300	75.200	80.300	68.700	0.913
84.200	75.200	79.500	68.700	0.913
83.300	75.200	78.200	68.700	0.913
82.400	75.200	76.600	68.700	0.913
81.300	75.300	74.800	68.700	0.913
80.100	75.300	73.400	68.700	0.913
79.000	75.300	72.000	68.700	0.913
77.900	75.300	70.300	68.700	0.913
76.900	75.300	69.100	68.700	0.913
75.700	75.300	67.800	68.700	0.913
74.800	75.300	66.400	68.700	0.913
74.000	75.300	65.100	68.700	0.912
73.100	75.400	64.100	68.800	0.912
72.200	75.400	63.000	68.800	0.912
71.400	75.400	61.900	68.800	0.912
70.700	75.400	61.000	68.800	0.912
70.000	75.400	60.700	68.800	0.912
69.100	75.400	60.100	68.800	0.912
68.300	75.400	59.400	68.800	0.912
67.800	75.400	59.200	68.800	0.912
67.100	75.400	58.800	68.800	0.912
66.400	75.400	58.100	68.800	0.912
66.400	75.400	57.500	68.800	0.912
65.800	75.500	57.100	68.800	0.912
65.300	75.500	56.800	68.800	0.912
64.800	75.500	56.200	68.800	0.911
64.200	75.500	55.700	68.800	0.911
63.700	75.500	55.600	68.800	0.911
63.400	75.500	55.200	68.800	0.911
62.800	75.500	55.000	68.800	0.911
62.300	75.500	54.600	68.800	0.911
61.800	75.500	54.100	68.800	0.911
61.500	75.500	53.700	68.800	0.911
61.000	75.500	53.500	68.800	0.911
60.500	75.600	52.900	68.800	0.911
60.000	75.600	52.600	68.800	0.911
59.700	75.600	52.300	68.800	0.911
59.300	75.600	52.000	68.800	0.911
58.800	75.600	51.800	68.800	0.911
58.400	75.600	51.500	68.800	0.911
58.200	75.600	51.200	68.800	0.911
57.900	75.600	51.100	68.800	0.911
57.600	75.600	50.900	68.800	0.911
57.700	75.600	50.900	68.800	0.910
57.200	75.600	50.700	68.800	0.910
57.000	75.600	50.700	68.800	0.910
57.100	75.600	50.600	68.800	0.910
56.700	75.600	50.400	68.800	0.910
56.500	75.600	50.600	68.800	0.910
56.200	75.700	50.600	68.800	0.910
55.900	75.700	50.500	68.800	0.910
55.400	75.700	50.400	68.900	0.910
54.800	75.700	50.200	68.900	0.910
54.400	75.700	49.800	68.900	0.910
53.900	75.700	49.400	68.900	0.910
53.400	75.700	48.900	68.900	0.910
52.900	75.700	48.500	68.900	0.910
52.400	75.700	48.200	68.900	0.910
51.800	75.700	48.000	68.900	0.910
51.500	75.700	47.700	68.900	0.910
51.700	75.700	47.800	68.900	0.910
52.100	75.600	48.300	68.900	0.911
53.000	75.600	49.400	68.800	0.911
55.900	75.500	50.700	68.800	0.911
60.200	75.400	52.700	68.800	0.912
63.900	75.400	56.600	68.700	0.912
67.300	75.300	60.500	68.700	0.912
70.800	75.200	64.400	68.600	0.912
75.600	75.200	69.100	68.600	0.912
81.900	75.100	73.800	68.500	0.913
85.500	75.100	78.000	68.500	0.913
88.800	75.000	81.400	68.500	0.913
92.100	75.000	84.300	68.500	0.913
95.100	75.000	87.300	68.400	0.913
97.600	74.900	89.500	68.400	0.913
99.300	74.900	91.500	68.400	0.913
101.300	74.900	93.100	68.400	0.913
103.200	74.900	94.900	68.400	0.913
105.000	74.800	96.800	68.400	0.913
106.900	74.800	99.000	68.300	0.913
108.500	74.800	101.000	68.300	0.913
109.900	74.800	102.600	68.300	0.913
111.000	74.800	104.000	68.300	0.913
112.100	74.800	105.200	68.300	0.913
112.800	74.800	105.900	68.300	0.913
113.300	74.800	107.000	68.300	0.913
113.400	74.800	107.600	68.300	0.913
113.300	74.900	107.900	68.300	0.912
112.800	74.900	107.900	68.300	0.912
111.800	74.900	107.500	68.300	0.912
110.400	75.000	106.600	68.300	0.912
108.500	75.000	105.300	68.400	0.911
106.300	75.100	103.700	68.400	0.911
103.200	75.100	101.400	68.400	0.911
99.800	75.200	98.600	68.500	0.911
97.400	75.200	95.100	68.500	0.911
95.200	75.200	91.000	68.500	0.911
92.800	75.200	88.100	68.600	0.911
91.000	75.300	85.900	68.600	0.911
89.600	75.300	84.000	68.600	0.911
88.600	75.300	82.600	68.600	0.911
87.400	75.300	81.300	68.600	0.911
86.300	75.300	79.900	68.600	0.911
85.300	75.300	78.500	68.700	0.911
84.200	75.400	77.300	68.700	0.911
83.000	75.400	75.700	68.700	0.911
81.900	75.400	73.800	68.700	0.911
80.700	75.400	72.100	68.700	0.911
79.800	75.400	70.600	68.700	0.911
78.600	75.400	69.200	68.800	0.911
77.400	75.500	67.500	68.800	0.911
76.500	75.500	66.300	68.800	0.911
75.500	75.500	65.200	68.800	0.911
74.600	75.500	64.100	68.800	0.911
73.700	75.500	63.300	68.800	0.911
72.700	75.500	62.600	68.800	0.911
71.900	75.500	61.800	68.800	0.911
71.100	75.600	61.000	68.800	0.911
70.400	75.600	60.400	68.800	0.911
69.600	75.600	59.800	68.800	0.911
68.900	75.600	59.200	68.800	0.911
68.200	75.600	58.700	68.900	0.911
67.500	75.600	58.200	68.900	0.911
66.900	75.600	57.700	68.900	0.911
66.300	75.600	57.100	68.900	0.910
65.800	75.700	56.700	68.900	0.910
65.200	75.700	56.300	68.900	0.910
64.700	75.700	56.100	68.900	0.910
64.200	75.700	55.800	68.900	0.910
63.700	75.700	55.300	68.900	0.910
63.100	75.700	55.000	68.900	0.910
62.700	75.700	54.700	68.900	0.910
62.200	75.700	54.400	68.900	0.910
61.800	75.700	53.900	68.900	0.910
61.200	75.700	53.400	68.900	0.910
60.700	75.800	53.200	68.900	0.910
60.300	75.800	52.900	68.900	0.910
59.900	75.800	52.400	68.900	0.910
59.500	75.800	52.200	68.900	0.910
59.000	75.800	51.800	68.900	0.910
58.600	75.800	51.500	69.000	0.910
58.400	75.800	51.200	69.000	0.910
58.200	75.800	51.000	69.000	0.910
57.800	75.800	50.800	69.000	0.910
57.700	75.800	50.800	69.000	0.910
57.500	75.800	50.600	69.000	0.910
57.400	75.800	50.500	69.000	0.909
57.000	75.800	50.400	69.000	0.909
56.900	75.800	50.500	69.000	0.909
56.800	75.900	50.700	69.000	0.909
56.400	75.900	50.700	69.000	0.909
55.900	75.900	50.300	69.000	0.909
55.500	75.900	50.200	69.000	0.909
55.100	75.900	50.000	69.000	0.909
54.400	75.900	49.500	69.000	0.909
54.100	75.900	49.100	69.000	0.909
53.700	75.900	48.700	69.000	0.909
53.100	75.900	48.200	69.000	0.909
52.400	75.900	48.100	69.000	0.909
52.000	75.900	48.100	69.000	0.909
51.800	75.900	47.900	69.000	0.909
52.000	75.900	48.000	69.000	0.909
52.200	75.800	48.400	69.000	0.910
53.000	75.800	49.300	69.000	0.910
55.700	75.700	50.700	68.900	0.910
60.000	75.700	52.300	68.900	0.910
63.800	75.600	55.900	68.800	0.910
67.400	75.500	59.900	68.700	0.910
71.400	75.500	63.600	68.700	0.910
75.800	75.400	68.300	68.600	0.910
80.600	75.600	73.600	68.800	0.910
85.100	75.600	78.000	68.800	0.910
88.200	75.600	81.000	68.800	0.910
91.700	75.700	83.500	68.900	0.910
94.400	75.700	86.000	68.900	0.910
97.200	75.700	88.500	68.900	0.910
99.200	75.700	90.600	68.900	0.910
101.100	75.700	92.800	68.900	0.910
103.000	75.700	95.000	69.000	0.910
104.900	75.700	96.600	69.000	0.911
106.400	75.800	98.500	69.000	0.911
107.900	75.800	100.100	69.000	0.911
109.200	75.800	101.600	69.000	0.911
110.300	75.800	102.800	69.000	0.911
111.200	75.800	104.200	69.000	0.911
111.900	75.800	105.200	69.000	0.911
112.300	75.800	106.000	69.100	0.911
112.400	75.800	106.400	69.100	0.911
112.100	75.800	106.800	69.100	0.911
111.700	75.800	106.700	69.100	0.911
110.800	75.800	106.400	69.100	0.911
109.300	75.800	105.600	69.100	0.911
107.400	75.800	104.300	69.100	0.911
105.000	75.800	102.500	69.100	0.911
101.900	75.800	100.100	69.100	0.911
98.600	75.800	97.200	69.000	0.911
96.200	75.800	93.800	69.000	0.911
94.000	75.800	90.100	69.000	0.911
91.800	75.800	87.100	69.000	0.910
90.100	75.800	84.800	69.000	0.910
88.900	75.800	82.800	68.900	0.910
87.800	75.800	81.500	68.900	0.910
86.700	75.800	80.500	68.900	0.910
85.600	75.800	79.000	68.900	0.910
84.500	75.800	77.700	68.900	0.910
83.400	75.700	76.200	68.900	0.910
82.200	75.700	74.600	68.900	0.910
81.100	75.700	72.600	68.900	0.910
79.900	75.700	70.800	68.900	0.909
78.700	75.700	68.800	68.900	0.909
77.500	75.700	67.200	68.900	0.909
76.500	75.700	65.800	68.900	0.909
75.500	75.700	64.600	68.800	0.909
74.500	75.700	63.400	68.800	0.909
73.500	75.700	62.600	68.800	0.909
72.800	75.700	61.700	68.800	0.909
71.700	75.700	61.100	68.800	0.909
70.900	75.700	60.400	68.800	0.909
70.200	75.700	59.600	68.800	0.909
69.500	75.700	58.800	68.800	0.908
68.600	75.700	58.200	68.800	0.908
68.000	75.700	57.700	68.800	0.908
67.300	75.700	57.100	68.800	0.908
66.600	75.700	56.700	68.800	0.908
66.000	75.700	56.300	68.800	0.908
65.400	75.700	55.700	68.800	0.908
64.900	75.700	55.300	68.800	0.908
64.300	75.700	55.000	68.800	0.908
63.800	75.700	54.800	68.800	0.908
63.300	75.700	54.100	68.800	0.908
62.700	75.800	53.800	68.800	0.908
62.300	75.800	53.300	68.800	0.908
61.700	75.800	52.900	68.800	0.908
61.300	75.800	52.700	68.800	0.908
60.800	75.800	52.500	68.800	0.908
60.400	75.800	52.000	68.800	0.908
60.000	75.800	51.600	68.800	0.908
59.500	75.800	51.300	68.800	0.908
59.100	75.800	50.900	68.800	0.908
58.700	75.800	50.700	68.800	0.908
58.400	75.800	50.300	68.800	0.908
58.000	75.800	49.900	68.800	0.908
57.700	75.800	49.300	68.800	0.908
57.500	75.800	49.300	68.800	0.908
57.200	75.800	49.400	68.800	0.908
57.100	75.800	49.300	68.800	0.908
57.000	75.800	49.300	68.800	0.908
56.800	75.800	49.200	68.800	0.908
56.500	75.800	49.400	68.800	0.908
56.400	75.800	49.400	68.800	0.908
56.200	75.800	49.300	68.800	0.908
55.700	75.800	49.100	68.800	0.908
55.100	75.800	48.900	68.800	0.908
54.600	75.800	48.800	68.800	0.908
54.200	75.800	48.500	68.800	0.908
53.700	75.800	48.100	68.800	0.908
53.200	75.800	47.800	68.800	0.908
52.700	75.800	47.600	68.800	0.908
52.300	75.800	47.400	68.800	0.908
51.800	75.800	47.100	68.800	0.908
51.500	75.800	46.900	68.800	0.907
51.600	75.800	47.000	68.800	0.907
51.900	75.800	47.300	68.800	0.907
52.100	75.800	48.000	68.800	0.907
53.900	75.800	49.400	68.800	0.907
58.000	75.800	50.500	68.800	0.907
62.200	75.800	53.400	68.800	0.907
65.600	75.900	57.600	68.800	0.908
69.100	75.900	61.400	68.900	0.908
73.200	75.900	65.300	68.900	0.908
78.000	75.900	70.600	68.900	0.908
83.000	75.900	75.500	68.900	0.908
86.400	75.900	78.500	68.900	0.908
89.500	75.900	81.000	68.900	0.908
92.200	75.900	83.700	68.900	0.908
94.800	75.900	86.100	69.000	0.908
97.400	75.900	87.900	69.000	0.908
99.300	75.900	89.800	69.000	0.908
100.800	75.900	91.900	69.000	0.908
102.400	75.900	94.000	69.000	0.908
104.100	75.900	95.800	69.000	0.909
105.600	75.900	97.300	69.000	0.909
106.700	75.900	99.000	69.000	0.909
107.800	75.900	100.200	69.000	0.909
109.000	75.900	101.300	69.000	0.909
109.800	75.900	102.400	69.000	0.909
110.300	76.000	103.200	69.000	0.909
110.500	76.000	103.900	69.000	0.909
110.400	76.000	104.100	69.000	0.909
109.800	76.000	104.000	69.000	0.909
108.800	76.000	103.600	69.000	0.909
107.400	75.900	103.200	69.000	0.909
105.500	75.900	102.100	69.000	0.909
103.000	75.900	100.600	69.000	0.909
99.900	75.900	98.400	69.000	0.909
96.600	75.900	95.400	69.000	0.908
94.500	75.900	91.800	69.000	0.908
92.400	75.900	88.200	68.900	0.908
90.300	75.900	85.600	68.900	0.908
88.800	75.900	83.400	68.900	0.908
87.900	75.900	81.800	68.900	0.908
86.900	75.900	80.800	68.900	0.908
85.900	75.900	79.900	68.900	0.908
84.900	75.900	78.700	68.900	0.908
84.100	75.900	77.000	68.900	0.907
83.000	75.900	75.700	68.900	0.907
81.900	75.900	74.000	68.900	0.907
80.800	75.900	72.300	68.900	0.907
79.700	75.900	70.500	68.800	0.907
78.600	75.900	68.900	68.800	0.907
77.500	75.900	67.700	68.800	0.907
76.500	75.900	66.500	68.800	0.907
75.500	75.900	64.800	68.800	0.907
74.500	75.900	63.400	68.800	0.907
73.600	75.900	62.200	68.800	0.906
72.800	75.900	61.100	68.800	0.906
72.000	75.900	60.600	68.800	0.906
71.100	75.900	60.300	68.800	0.906
70.400	75.900	59.600	68.800	0.906
69.600	75.900	59.100	68.800	0.906
69.000	75.900	58.500	68.800	0.906
68.300	75.900	58.100	68.700	0.906
67.600	75.900	57.600	68.700	0.906
67.000	75.900	57.000	68.700	0.906
66.500	75.900	56.700	68.700	0.906
66.000	75.900	56.300	68.700	0.906
65.500	75.900	56.000	68.700	0.906
64.900	75.900	55.700	68.700	0.906
64.500	75.900	55.200	68.700	0.906
64.000	75.900	54.900	68.700	0.906
63.500	75.900	54.700	68.700	0.906
63.100	75.900	54.400	68.700	0.906
62.700	75.900	54.300	68.700	0.905
62.100	75.900	53.800	68.700	0.905
61.800	75.900	53.200	68.700	0.905
61.200	75.900	53.200	68.700	0.905
60.900	75.900	52.900	68.700	0.905
60.500	75.900	52.700	68.700	0.905
60.100	75.900	52.500	68.700	0.905
59.700	75.900	52.000	68.700	0.905
59.400	75.900	51.700	68.700	0.905
59.000	75.900	51.500	68.700	0.905
58.600	75.900	51.100	68.700	0.905
58.300	75.900	50.800	68.700	0.905
58.100	75.900	50.600	68.700	0.905
57.900	75.900	50.500	68.700	0.905
57.900	75.900	50.400	68.700	0.905
57.900	75.900	50.400	68.700	0.905
57.600	75.900	50.400	68.700	0.905
57.500	75.900	50.500	68.700	0.905
57.200	75.900	50.500	68.700	0.905
56.900	75.900	50.500	68.700	0.905
56.700	75.900	50.500	68.700	0.905
56.300	75.900	50.500	68.700	0.905
55.900	75.900	50.500	68.700	0.905
55.400	75.900	50.000	68.700	0.905
54.900	75.900	49.700	68.700	0.905
54.500	75.900	49.700	68.700	0.905
53.900	75.900	49.500	68.700	0.905
53.300	75.900	49.200	68.700	0.905
52.900	75.900	49.000	68.700	0.905
52.600	75.900	48.700	68.700	0.905
52.300	75.900	48.500	68.700	0.905
52.700	75.900	48.600	68.700	0.905
53.100	75.900	49.100	68.700	0.905
54.500	75.900	50.200	68.700	0.905
58.000	75.900	51.600	68.700	0.905
62.300	75.900	53.700	68.700	0.905
65.800	75.900	57.500	68.700	0.905
69.100	75.900	61.500	68.700	0.905
72.900	76.000	65.200	68.700	0.905
79.100	76.000	69.800	68.700	0.905
83.600	76.000	75.100	68.700	0.905
86.800	76.000	79.100	68.700	0.905
90.800	76.000	81.900	68.700	0.905
94.200	76.000	84.500	68.700	0.904
96.600	76.000	87.500	68.700	0.904
98.800	76.000	90.200	68.700	0.904
101.100	76.000	92.300	68.700	0.904
103.400	76.000	94.300	68.700	0.904
105.100	76.000	96.200	68.700	0.904
106.600	76.000	97.900	68.800	0.904
108.000	76.000	99.800	68.800	0.904
109.500	76.000	101.400	68.800	0.904
110.800	76.000	102.700	68.800	0.904
112.000	76.000	104.100	68.800	0.904
113.000	76.000	105.300	68.800	0.904
113.600	76.000	106.400	68.800	0.904
113.900	76.000	107.300	68.800	0.904
114.000	76.000	107.900	68.800	0.904
113.700	76.000	108.300	68.800	0.904
113.000	76.000	108.100	68.800	0.904
111.900	76.000	107.500	68.800	0.904
110.400	76.000	106.500	68.800	0.904
108.200	76.000	105.400	68.800	0.904
105.400	76.000	103.700	68.800	0.904
102.100	76.000	101.200	68.800	0.904
98.600	76.000	98.200	68.800	0.904
96.300	76.000	94.400	68.800	0.904
94.100	76.000	90.400	68.800	0.904
91.900	76.000	87.400	68.800	0.904
90.400	76.000	85.200	68.700	0.904
89.400	76.000	83.200	68.700	0.904
88.400	76.000	82.300	68.700	0.904
87.300	76.000	81.600	68.700	0.904
86.400	76.000	80.100	68.700	0.904
85.300	76.000	78.300	68.700	0.904
84.300	76.000	76.700	68.700	0.904
83.000	76.000	75.000	68.700	0.904
81.800	76.000	73.300	68.700	0.904
80.700	76.000	71.500	68.700	0.904
79.600	76.000	70.000	68.700	0.904
78.500	76.000	68.800	68.700	0.904
77.500	76.000	67.100	68.700	0.904
76.400	76.000	65.700	68.700	0.904
75.500	76.000	64.700	68.700	0.904
74.500	76.000	63.500	68.700	0.904
73.700	76.000	62.800	68.700	0.904
72.800	76.000	62.300	68.700	0.904
71.900	76.000	61.600	68.700	0.904
71.200	76.000	60.800	68.700	0.904
70.400	76.000	60.300	68.700	0.904
69.700	76.000	59.600	68.700	0.904
69.000	76.000	59.100	68.700	0.904
68.200	76.000	58.700	68.700	0.904
67.600	76.000	58.100	68.700	0.904
67.000	76.000	57.700	68.700	0.904
66.500	76.000	57.400	68.700	0.904
66.000	76.000	56.900	68.700	0.904
65.400	76.000	56.500	68.700	0.904
64.900	76.000	56.000	68.700	0.904
64.300	76.000	55.900	68.700	0.904
63.900	76.000	55.500	68.700	0.904
63.300	76.000	54.900	68.700	0.904
62.900	76.000	54.500	68.700	0.904
62.400	76.000	54.100	68.700	0.904
62.000	76.000	53.800	68.700	0.904
61.400	76.000	53.500	68.700	0.904
61.000	76.000	53.400	68.700	0.904
60.500	76.000	53.100	68.700	0.904
60.200	76.000	52.600	68.700	0.904
59.700	76.000	52.100	68.700	0.904
59.300	76.000	51.800	68.700	0.904
58.900	76.000	51.400	68.700	0.904
58.500	76.000	51.300	68.700	0.904
58.200	76.000	51.100	68.700	0.904
57.900	76.000	50.700	68.700	0.904
57.700	76.000	50.500	68.700	0.904
57.500	76.000	50.400	68.700	0.904
57.200	76.000	50.200	68.700	0.904
57.100	76.000	50.400	68.700	0.904
57.000	76.000	50.400	68.700	0.904
56.700	76.000	50.200	68.700	0.904
56.600	76.000	50.400	68.700	0.904
56.400	76.000	50.500	68.700	0.904
56.000	76.000	50.300	68.700	0.904
55.600	76.000	50.300	68.700	0.904
55.100	76.000	50.000	68.700	0.904
54.600	76.000	49.700	68.700	0.904
54.100	76.000	49.300	68.700	0.904
53.600	76.000	48.700	68.700	0.904
53.000	76.100	48.300	68.700	0.904
52.500	76.100	47.900	68.700	0.904
52.100	76.100	47.800	68.700	0.904
51.600	76.100	47.600	68.700	0.904
51.700	76.100	47.600	68.700	0.904
52.000	76.000	47.800	68.700	0.904
52.800	76.000	48.800	68.700	0.904
55.200	76.000	49.900	68.700	0.904
59.300	76.000	51.500	68.700	0.904
63.300	76.000	54.200	68.700	0.904
66.900	76.000	58.200	68.700	0.904
70.700	76.000	62.000	68.600	0.904
75.300	75.900	66.000	68.600	0.903
80.500	75.900	71.200	68.600	0.903
85.100	75.900	76.300	68.600	0.903
88.400	75.900	79.600	68.600	0.903
91.300	75.900	82.900	68.500	0.903
94.600	75.900	85.700	68.500	0.903
97.200	75.900	87.800	68.500	0.903
99.300	75.900	89.800	68.500	0.903
101.200	75.900	92.100	68.500	0.903
103.200	75.900	94.000	68.500	0.903
105.100	75.900	95.900	68.500	0.903
106.700	75.900	97.900	68.500	0.903
108.100	75.900	99.800	68.500	0.903
109.700	75.900	101.400	68.500	0.903
111.000	75.900	103.000	68.500	0.903
112.100	75.900	104.300	68.500	0.903
112.900	75.900	105.700	68.500	0.903
113.500	75.900	106.600	68.500	0.903
113.800	75.900	107.400	68.500	0.903
113.600	75.900	107.900	68.500	0.903
113.200	75.900	108.100	68.500	0.903
112.300	75.900	107.800	68.500	0.902
110.900	75.900	107.100	68.500	0.902
109.000	75.900	106.100	68.500	0.902
106.600	75.900	104.600	68.500	0.902
103.600	75.900	102.600	68.500	0.903
100.000	76.000	99.900	68.600	0.903
97.100	76.000	96.500	68.600	0.903
94.900	76.000	92.600	68.600	0.903
92.700	76.000	89.200	68.600	0.903
90.800	76.000	86.500	68.600	0.903
89.500	76.000	84.200	68.600	0.903
88.500	76.000	82.500	68.600	0.903
87.300	76.000	81.300	68.600	0.903
86.200	76.000	80.100	68.700	0.903
85.200	76.000	78.600	68.700	0.903
84.200	76.000	77.200	68.700	0.903
83.100	76.000	75.900	68.700	0.903
81.900	76.000	73.800	68.700	0.903
80.800	76.000	71.900	68.700	0.903
79.500	76.100	70.200	68.700	0.904
78.500	76.100	68.600	68.700	0.904
77.400	76.100	67.000	68.700	0.904
76.400	76.100	65.700	68.700	0.904
75.200	76.100	64.500	68.700	0.904
74.400	76.100	63.400	68.800	0.904
73.500	76.100	62.600	68.800	0.904
72.700	76.100	61.800	68.800	0.904
71.800	76.100	61.100	68.800	0.904
70.900	76.100	60.500	68.800	0.904
70.100	76.100	59.900	68.800	0.904
69.400	76.100	59.300	68.800	0.904
68.700	76.100	58.600	68.800	0.904
67.900	76.100	57.900	68.800	0.904
67.300	76.100	57.600	68.800	0.904
66.600	76.100	57.000	68.800	0.904
66.100	76.100	56.600	68.800	0.904
65.500	76.100	56.300	68.800	0.904
65.000	76.100	55.700	68.800	0.904
64.400	76.100	55.300	68.800	0.904
63.900	76.200	54.700	68.800	0.904
63.300	76.200	54.400	68.800	0.904
62.900	76.200	54.200	68.800	0.904
62.400	76.200	53.800	68.800	0.904
61.800	76.200	53.400	68.800	0.904
61.300	76.200	52.900	68.800	0.904
61.000	76.200	52.500	68.800	0.904
60.500	76.200	52.000	68.800	0.904
60.000	76.200	51.800	68.800	0.904
59.500	76.200	51.700	68.800	0.904
59.200	76.200	51.300	68.900	0.904
58.800	76.200	50.800	68.900	0.904
58.400	76.200	50.600	68.900	0.904
57.900	76.200	50.300	68.900	0.904
57.600	76.200	50.100	68.900	0.904
57.300	76.200	49.800	68.900	0.904
57.000	76.200	49.600	68.900	0.904
56.800	76.200	49.400	68.900	0.904
56.600	76.200	49.200	68.900	0.904
56.600	76.200	49.000	68.900	0.904
56.300	76.200	49.200	68.900	0.904
56.100	76.200	49.300	68.900	0.904
56.000	76.200	49.300	68.900	0.904
55.700	76.200	49.200	68.900	0.904
55.300	76.200	49.000	68.900	0.904
54.800	76.200	48.700	68.900	0.904
54.400	76.200	48.600	68.900	0.904
53.900	76.200	48.500	68.900	0.904
53.400	76.200	48.200	68.900	0.904
52.900	76.200	47.600	68.900	0.904
52.300	76.200	47.200	68.900	0.904
51.700	76.200	47.200	68.900	0.904
51.200	76.200	46.700	68.900	0.904
50.900	76.200	46.500	68.900	0.904
51.200	76.200	46.600	68.900	0.904
51.300	76.200	47.000	68.900	0.904
51.900	76.200	47.700	68.800	0.904
54.000	76.100	48.800	68.800	0.904
58.300	76.100	50.100	68.800	0.904
62.300	76.000	52.700	68.700	0.904
65.700	76.000	56.500	68.700	0.904
69.700	76.000	60.500	68.600	0.904
74.400	75.900	64.500	68.600	0.903
78.200	75.900	69.500	68.500	0.903
82.300	75.900	74.600	68.500	0.903
86.500	75.800	77.800	68.500	0.903
89.600	75.800	80.100	68.500	0.903
92.500	75.800	82.700	68.400	0.903
95.300	75.800	85.500	68.400	0.903
97.600	75.700	87.900	68.400	0.903
99.400	75.700	90.000	68.400	0.903
101.200	75.700	91.900	68.400	0.903
102.500	75.700	93.600	68.300	0.903
103.900	75.700	95.300	68.300	0.903
105.800	75.700	97.100	68.300	0.903
106.900	75.700	98.700	68.300	0.903
107.900	75.700	100.000	68.300	0.903
108.900	75.700	101.200	68.300	0.903
109.700	75.600	102.200	68.300	0.903
110.200	75.700	103.100	68.300	0.903
110.400	75.700	103.800	68.300	0.902
110.300	75.700	104.300	68.300	0.902
109.700	75.700	104.400	68.300	0.902
108.700	75.700	104.200	68.300	0.902
107.300	75.700	103.600	68.300	0.902
105.400	75.800	102.500	68.300	0.902
102.800	75.800	101.000	68.400	0.902
99.800	75.800	99.000	68.400	0.902
96.500	75.800	96.400	68.400	0.903
94.200	75.800	92.900	68.500	0.903
92.100	75.900	89.000	68.500	0.903
90.000	75.900	86.200	68.500	0.903
88.500	75.900	83.700	68.500	0.903
87.300	75.900	81.800	68.500	0.903
86.300	75.900	80.300	68.500	0.903
85.200	75.900	79.200	68.600	0.903
84.300	75.900	78.100	68.600	0.903
83.300	75.900	76.600	68.600	0.903
82.200	75.900	74.900	68.600	0.904
81.100	75.900	73.300	68.600	0.904
79.900	75.900	71.500	68.600	0.904
78.900	75.900	69.600	68.600	0.904
77.800	76.000	67.800	68.600	0.904
76.600	76.000	66.000	68.700	0.904
75.500	76.000	64.400	68.700	0.904
74.500	76.000	62.900	68.700	0.904
73.600	76.000	61.800	68.700	0.904
72.700	76.000	61.000	68.700	0.904
71.800	76.000	60.300	68.700	0.904
70.900	76.000	59.500	68.700	0.904
70.100	76.000	59.100	68.700	0.904
69.500	76.000	58.500	68.700	0.904
68.700	76.000	58.100	68.700	0.904
67.900	76.000	57.600	68.700	0.904
67.300	76.000	57.100	68.700	0.904
66.700	76.000	56.600	68.700	0.904
66.100	76.000	56.400	68.700	0.904
65.500	76.000	56.000	68.700	0.904
65.000	76.000	55.600	68.700	0.904
64.400	76.000	55.100	68.700	0.904
64.000	76.000	54.700	68.700	0.904
63.400	76.000	54.300	68.700	0.904
63.000	76.000	53.700	68.700	0.904
62.600	76.000	53.400	68.700	0.904
62.100	76.000	53.300	68.700	0.904
61.700	76.000	53.000	68.700	0.904
61.300	76.000	52.600	68.700	0.903
60.800	76.000	52.300	68.700	0.903
60.400	76.000	52.000	68.700	0.903
60.000	76.000	51.600	68.700	0.903
59.600	76.000	51.300	68.700	0.903
59.200	76.000	51.100	68.700	0.903
58.800	76.000	51.200	68.700	0.903
58.400	76.000	50.800	68.700	0.903
58.100	76.000	50.500	68.700	0.903
57.800	76.000	50.000	68.700	0.903
57.600	76.000	49.700	68.700	0.903
57.300	76.000	49.900	68.700	0.903
57.200	76.000	49.800	68.700	0.903
57.000	76.000	49.800	68.700	0.903
57.000	76.000	49.600	68.700	0.903
57.000	76.000	49.500	68.700	0.903
57.000	76.000	49.800	68.700	0.903
56.700	76.000	49.900	68.700	0.903
56.300	76.000	49.900	68.700	0.903
56.100	76.000	49.900	68.700	0.903
55.700	76.000	49.800	68.700	0.903
55.200	76.000	49.700	68.700	0.903
54.600	76.000	49.700	68.700	0.903
54.200	76.000	49.400	68.700	0.903
53.700	76.000	48.900	68.700	0.903
53.300	76.000	48.600	68.700	0.903
52.900	76.000	48.300	68.700	0.903
52.400	76.000	48.200	68.700	0.903
52.100	76.000	48.100	68.700	0.903
52.300	76.000	48.100	68.600	0.903
52.500	76.000	48.200	68.600	0.903
52.900	76.000	48.800	68.600	0.903
55.000	76.000	49.800	68.600	0.903
59.000	75.900	51.100	68.600	0.903
63.000	75.900	53.300	68.500	0.903
66.300	75.800	56.900	68.500	0.903
69.700	75.800	60.800	68.400	0.903
73.600	75.800	64.700	68.400	0.903
80.400	75.700	69.200	68.300	0.903
84.000	75.700	74.300	68.300	0.903
87.100	75.700	77.800	68.300	0.902
90.400	75.600	80.800	68.200	0.902
94.100	75.600	83.600	68.200	0.902
96.400	75.600	86.500	68.200	0.902
98.200	75.600	88.800	68.200	0.902
100.200	75.500	91.100	68.100	0.902
102.300	75.500	93.200	68.100	0.902
104.000	75.500	94.900	68.100	0.902
105.500	75.500	96.500	68.100	0.902
106.800	75.500	98.200	68.100	0.902
108.200	75.500	99.600	68.000	0.902
109.600	75.400	100.800	68.000	0.902
110.700	75.400	102.300	68.000	0.902
111.400	75.400	103.600	68.000	0.902
111.800	75.400	104.800	68.000	0.901
112.000	75.400	105.500	68.000	0.901
111.900	75.400	105.900	68.000	0.901
111.300	75.400	106.100	68.000	0.901
110.300	75.400	105.600	68.000	0.901
108.800	75.400	105.200	68.000	0.901
107.000	75.400	104.400	68.000	0.901
104.500	75.500	102.800	68.000	0.901
101.400	75.500	100.800	68.000	0.901
97.900	75.500	98.400	68.000	0.901
95.500	75.500	95.100	68.100	0.902
93.500	75.500	91.500	68.100	0.902
91.300	75.500	88.100	68.100	0.902
89.600	75.500	85.400	68.100	0.902
88.500	75.500	83.100	68.100	0.902
87.700	75.500	81.900	68.100	0.902
86.700	75.500	81.000	68.100	0.902
85.700	75.500	80.100	68.100	0.902
84.800	75.600	78.700	68.200	0.902
83.700	75.600	76.800	68.200	0.902
82.600	75.600	75.100	68.200	0.902
81.300	75.600	73.300	68.200	0.902
80.200	75.600	71.600	68.200	0.902
79.100	75.600	70.100	68.200	0.903
77.900	75.600	68.800	68.200	0.903
76.900	75.600	67.300	68.200	0.903
75.900	75.600	66.000	68.200	0.903
75.000	75.600	64.500	68.200	0.903
74.100	75.600	63.200	68.300	0.903
73.200	75.600	62.100	68.300	0.903
72.300	75.600	61.500	68.300	0.903
71.500	75.600	61.000	68.300	0.903
70.700	75.600	60.300	68.300	0.903
69.900	75.600	59.800	68.300	0.903
69.200	75.600	59.200	68.300	0.903
68.500	75.600	58.800	68.300	0.903
67.800	75.600	58.300	68.300	0.903
67.100	75.600	57.500	68.300	0.903
66.500	75.600	57.100	68.300	0.903
65.900	75.600	56.800	68.300	0.903
65.300	75.600	56.500	68.300	0.903
64.800	75.600	56.200	68.300	0.903
64.400	75.600	55.600	68.300	0.903
63.800	75.600	55.200	68.300	0.903
63.400	75.600	54.900	68.300	0.903
62.900	75.600	54.600	68.300	0.903
62.400	75.600	54.200	68.300	0.903
61.900	75.600	53.800	68.300	0.903
61.400	75.600	53.600	68.300	0.903
60.900	75.600	53.200	68.300	0.903
60.500	75.700	52.700	68.300	0.903
60.100	75.700	52.300	68.300	0.903
59.600	75.700	52.200	68.300	0.903
59.200	75.700	51.800	68.300	0.903
58.800	75.700	51.300	68.300	0.903
58.400	75.700	51.200	68.300	0.903
58.000	75.700	50.800	68.300	0.903
57.700	75.700	50.300	68.300	0.903
57.200	75.700	50.200	68.300	0.903
57.000	75.700	49.900	68.300	0.903
56.900	75.700	49.700	68.300	0.903
56.600	75.700	49.600	68.300	0.903
56.400	75.700	49.400	68.300	0.902
56.300	75.600	49.300	68.300	0.902
56.100	75.600	49.400	68.300	0.902
55.900	75.600	49.400	68.300	0.902
55.800	75.600	49.400	68.300	0.902
55.500	75.700	49.500	68.300	0.902
55.200	75.700	49.600	68.300	0.902
54.700	75.700	49.700	68.300	0.902
54.200	75.700	49.300	68.300	0.902
53.800	75.700	48.900	68.300	0.902
53.200	75.700	48.800	68.300	0.902
52.800	75.700	48.400	68.300	0.902
52.300	75.700	47.900	68.300	0.902
51.600	75.700	47.600	68.300	0.902
51.200	75.700	47.500	68.300	0.902
50.800	75.700	47.100	68.300	0.902
51.000	75.600	46.900	68.300	0.902
51.300	75.600	47.000	68.200	0.902
52.100	75.600	47.600	68.200	0.903
54.600	75.500	48.900	68.200	0.903
58.600	75.500	50.200	68.100	0.903
62.600	75.500	52.700	68.100	0.903
66.200	75.400	56.600	68.100	0.902
69.900	75.400	60.300	68.000	0.902
74.100	75.300	64.100	68.000	0.902
79.500	75.400	68.800	68.000	0.902
83.800	75.400	73.900	68.000	0.902
87.100	75.400	77.500	68.000	0.902
90.300	75.400	80.500	68.000	0.902
93.300	75.400	83.400	68.000	0.902
95.700	75.400	86.200	68.000	0.902
98.000	75.400	88.300	68.000	0.902
100.400	75.400	90.300	68.000	0.902
102.300	75.400	92.400	68.000	0.902
103.900	75.400	94.500	68.000	0.902
105.500	75.400	96.500	68.000	0.902
106.900	75.400	98.200	68.000	0.902
108.400	75.400	99.800	67.900	0.902
109.700	75.300	101.400	67.900	0.902
110.600	75.300	102.600	67.900	0.902
111.400	75.300	103.700	67.900	0.902
111.800	75.300	104.800	67.900	0.902
112.000	75.300	105.500	67.900	0.902
111.800	75.300	106.000	67.900	0.902
111.400	75.300	106.400	67.900	0.902
110.400	75.300	106.400	67.900	0.902
109.000	75.300	105.800	67.900	0.902
107.100	75.300	104.600	67.900	0.902
104.800	75.300	103.300	67.900	0.902
101.700	75.300	101.400	67.900	0.902
98.200	75.300	98.800	67.900	0.902
95.800	75.300	95.700	67.900	0.902
93.700	75.300	92.000	67.900	0.902
91.400	75.300	88.400	67.900	0.902
89.800	75.300	85.700	67.900	0.902
88.600	75.300	83.300	67.900	0.902
87.500	75.300	81.800	67.900	0.902
86.400	75.300	80.700	67.900	0.902
85.400	75.300	79.500	67.900	0.902
84.300	75.200	77.900	67.900	0.902
83.200	75.200	76.500	67.900	0.902
82.100	75.200	74.900	67.900	0.902
81.000	75.200	73.100	67.900	0.902
79.800	75.200	71.400	67.900	0.902
78.700	75.200	69.600	67.800	0.902
77.600	75.200	67.900	67.800	0.902
76.500	75.200	66.500	67.800	0.902
75.400	75.200	64.900	67.800	0.902
74.400	75.200	63.700	67.800	0.902
73.600	75.200	62.700	67.800	0.902
72.700	75.200	61.800	67.800	0.902
71.800	75.200	61.600	67.800	0.902
71.100	75.200	60.800	67.800	0.902
70.300	75.200	60.200	67.800	0.902
69.500	75.200	59.700	67.800	0.902
68.800	75.200	59.100	67.800	0.902
68.000	75.200	58.500	67.800	0.902
67.300	75.200	57.900	67.800	0.902
66.600	75.200	57.300	67.800	0.902
66.000	75.200	56.700	67.800	0.902
65.500	75.200	56.400	67.800	0.902
64.900	75.200	56.000	67.800	0.902
64.200	75.200	55.600	67.800	0.902
63.700	75.200	55.000	67.800	0.902
63.300	75.200	54.600	67.800	0.902
62.700	75.200	54.600	67.800	0.902
62.200	75.200	54.000	67.800	0.902
61.800	75.200	53.600	67.800	0.902
61.400	75.200	53.300	67.800	0.902
60.900	75.200	52.700	67.800	0.902
60.400	75.200	52.400	67.800	0.902
60.000	75.200	52.100	67.800	0.902
59.500	75.200	51.800	67.800	0.902
59.200	75.200	51.500	67.800	0.902
58.700	75.200	51.300	67.800	0.902
58.300	75.200	50.800	67.800	0.902
57.900	75.200	50.300	67.800	0.902
57.500	75.200	49.900	67.800	0.902
57.200	75.200	49.800	67.800	0.902
56.800	75.200	49.500	67.800	0.902
56.400	75.200	49.200	67.800	0.902
56.400	75.200	49.300	67.800	0.902
56.100	75.200	49.200	67.800	0.902
55.900	75.200	48.900	67.800	0.902
55.800	75.200	48.700	67.800	0.902
55.600	75.200	48.700	67.800	0.902
55.400	75.100	48.900	67.800	0.902
55.100	75.100	49.100	67.800	0.902
54.800	75.100	49.400	67.800	0.902
54.400	75.100	49.000	67.800	0.902
53.900	75.100	48.600	67.800	0.902
53.300	75.100	48.500	67.800	0.902
52.900	75.100	48.300	67.800	0.903
52.400	75.100	47.900	67.800	0.903
52.000	75.100	47.400	67.800	0.903
51.400	75.100	47.000	67.800	0.903
50.900	75.100	46.900	67.800	0.903
50.500	75.100	46.700	67.800	0.903
50.200	75.100	46.200	67.800	0.903
50.500	75.100	46.200	67.800	0.903
50.700	75.100	46.500	67.800	0.903
51.900	75.100	47.400	67.800	0.903
55.200	75.100	48.600	67.800	0.903
59.600	75.100	49.900	67.800	0.903
63.300	75.100	52.600	67.800	0.903
66.700	75.100	56.500	67.800	0.903
70.700	75.100	60.300	67.800	0.903
75.600	75.100	64.300	67.700	0.902
79.600	75.100	69.100	67.700	0.902
83.300	75.100	74.000	67.800	0.902
86.900	75.100	77.500	67.800	0.902
89.900	75.200	80.000	67.800	0.902
92.400	75.200	82.400	67.800	0.902
94.700	75.200	85.100	67.800	0.902
96.900	75.200	87.100	67.900	0.902
98.700	75.200	89.300	67.900	0.902
100.500	75.200	91.000	67.900	0.902
101.900	75.200	92.700	67.900	0.902
103.400	75.200	94.600	67.900	0.902
104.700	75.300	96.600	67.900	0.902
106.000	75.300	97.800	67.900	0.902
107.000	75.300	98.900	67.900	0.902
107.900	75.300	100.400	67.900	0.902
108.600	75.300	101.400	67.900	0.902
108.700	75.300	102.400	67.900	0.902
108.700	75.300	102.900	67.900	0.903
108.400	75.300	103.100	67.900	0.903
107.600	75.300	103.100	67.900	0.903
106.300	75.200	102.800	67.900	0.903
104.700	75.200	102.100	67.900	0.903
102.500	75.200	100.800	67.900	0.903
99.500	75.200	99.100	67.900	0.903
96.200	75.100	97.000	67.900	0.903
93.500	75.100	94.100	67.900	0.903
91.400	75.100	90.700	67.800	0.903
89.300	75.100	86.700	67.800	0.903
87.400	75.000	83.900	67.800	0.903
86.100	75.000	81.600	67.700	0.903
85.200	75.000	79.700	67.700	0.903
84.200	75.000	78.500	67.700	0.903
83.100	75.000	77.800	67.700	0.903
82.200	75.000	76.300	67.700	0.903
81.200	75.000	74.800	67.700	0.903
80.100	74.900	73.400	67.600	0.903
79.000	74.900	71.400	67.600	0.903
77.900	74.900	69.600	67.600	0.903
76.800	74.900	67.900	67.600	0.902
75.700	74.900	65.900	67.600	0.902
74.600	74.900	64.100	67.600	0.902
73.500	74.900	62.600	67.500	0.902
72.600	74.800	61.400	67.500	0.902
71.700	74.800	60.600	67.500	0.902
70.800	74.800	59.900	67.500	0.902
69.900	74.800	59.100	67.500	0.902
69.100	74.800	58.500	67.500	0.902
68.200	74.800	57.800	67.500	0.902
67.500	74.800	57.200	67.500	0.902
66.800	74.800	56.700	67.500	0.902
66.200	74.800	56.200	67.500	0.902
65.500	74.700	55.700	67.500	0.902
64.900	74.700	55.300	67.400	0.902
64.300	74.700	54.800	67.400	0.902
63.800	74.700	54.400	67.400	0.902
63.300	74.700	54.100	67.400	0.902
62.800	74.700	53.800	67.400	0.902
62.300	74.700	53.500	67.400	0.902
61.800	74.700	53.100	67.400	0.902
61.300	74.700	52.600	67.400	0.903
60.900	74.700	52.200	67.400	0.903
60.500	74.700	52.000	67.400	0.903
60.000	74.600	51.600	67.400	0.903
59.500	74.600	51.200	67.400	0.903
59.200	74.600	50.900	67.400	0.903
58.700	74.600	50.700	67.400	0.903
58.300	74.600	50.600	67.400	0.903
57.900	74.600	50.300	67.300	0.903
57.600	74.600	49.800	67.300	0.903
57.200	74.600	49.600	67.300	0.903
56.900	74.600	49.300	67.300	0.903
56.500	74.600	49.100	67.300	0.903
56.200	74.600	48.800	67.300	0.903
55.800	74.600	48.500	67.300	0.903
55.600	74.600	48.200	67.300	0.903
55.400	74.500	48.200	67.300	0.903
55.300	74.500	48.100	67.300	0.903
55.300	74.500	48.000	67.300	0.903
55.100	74.500	48.200	67.300	0.903
55.200	74.500	48.200	67.300	0.903
55.100	74.500	48.200	67.300	0.903
54.700	74.500	48.600	67.300	0.903
54.400	74.500	48.500	67.300	0.903
54.200	74.500	48.300	67.300	0.903
53.800	74.500	48.100	67.300	0.903
53.300	74.500	48.100	67.200	0.903
52.800	74.500	48.200	67.200	0.903
52.400	74.500	47.800	67.200	0.903
52.000	74.500	47.400	67.200	0.903
51.500	74.500	47.200	67.200	0.903
51.000	74.400	46.800	67.200	0.903
50.700	74.400	46.700	67.200	0.903
50.400	74.400	46.600	67.200	0.903
50.600	74.400	46.400	67.200	0.903
50.900	74.400	46.700	67.200	0.903
51.600	74.400	47.400	67.200	0.903
54.100	74.400	48.300	67.200	0.903
58.200	74.400	49.500	67.200	0.903
62.100	74.400	51.600	67.200	0.903
65.500	74.500	55.300	67.200	0.903
68.900	74.500	59.300	67.200	0.903
72.800	74.500	62.900	67.200	0.903
79.000	74.500	67.000	67.200	0.902
82.500	74.500	72.300	67.200	0.903
85.600	74.500	76.300	67.200	0.903
89.200	74.500	78.700	67.200	0.903
92.200	74.500	81.400	67.200	0.902
94.700	74.500	84.500	67.200	0.902
96.600	74.500	87.400	67.300	0.903
98.400	74.500	89.300	67.300	0.903
100.100	74.500	90.900	67.300	0.903
102.000	74.500	92.700	67.200	0.903
103.400	74.500	94.500	67.200	0.903
104.700	74.500	96.100	67.200	0.903
105.700	74.500	97.400	67.200	0.903
106.800	74.500	98.900	67.200	0.903
107.600	74.500	100.100	67.200	0.903
108.100	74.500	101.200	67.200	0.903
108.400	74.500	102.000	67.200	0.903
108.400	74.500	102.600	67.200	0.903
108.200	74.500	103.100	67.200	0.903
107.600	74.400	103.300	67.200	0.903
106.600	74.400	103.300	67.200	0.903
105.000	74.400	102.900	67.200	0.903
103.000	74.400	101.900	67.200	0.903
100.400	74.400	100.200	67.200	0.903
97.100	74.300	98.000	67.200	0.903
94.000	74.300	95.600	67.100	0.903
92.100	74.300	92.300	67.100	0.903
90.100	74.300	88.600	67.100	0.903
88.000	74.300	85.200	67.100	0.903
86.800	74.300	83.100	67.100	0.903
85.900	74.200	81.100	67.000	0.903
85.000	74.200	79.800	67.000	0.903
84.000	74.200	79.000	67.000	0.903
83.000	74.200	78.000	67.000	0.903
82.100	74.200	76.700	67.000	0.903
81.200	74.200	75.000	67.000	0.903
80.000	74.200	73.100	67.000	0.903
78.800	74.200	71.500	67.000	0.903
77.700	74.100	70.000	67.000	0.903
76.600	74.100	68.400	66.900	0.903
75.600	74.100	66.600	66.900	0.903
74.600	74.100	65.500	66.900	0.903
73.500	74.100	64.300	66.900	0.903
72.600	74.100	63.100	66.900	0.903
71.700	74.100	61.900	66.900	0.903
71.000	74.100	61.000	66.900	0.903
70.200	74.100	60.200	66.900	0.903
69.300	74.000	59.600	66.900	0.903
68.600	74.000	59.100	66.900	0.903
67.900	74.000	58.500	66.900	0.903
67.200	74.000	57.900	66.900	0.903
66.400	74.000	57.400	66.900	0.903
65.800	74.000	56.900	66.800	0.903
65.200	74.000	56.600	66.800	0.903
64.600	74.000	56.100	66.800	0.903
64.000	74.000	55.700	66.800	0.903
63.600	74.000	55.400	66.800	0.903
63.000	74.000	55.000	66.800	0.903
62.600	74.000	54.500	66.800	0.903
62.000	73.900	54.200	66.800	0.903
61.700	73.900	53.900	66.800	0.904
61.200	73.900	53.400	66.800	0.904
60.700	73.900	53.000	66.800	0.904
60.200	73.900	52.600	66.800	0.904
59.800	73.900	52.200	66.800	0.904
59.200	73.900	51.900	66.800	0.904
58.800	73.900	51.500	66.800	0.904
58.400	73.900	51.000	66.800	0.904
58.000	73.900	50.700	66.800	0.904
57.600	73.900	50.500	66.800	0.904
57.300	73.900	50.200	66.800	0.904
56.900	73.900	50.000	66.800	0.904
56.500	73.900	49.600	66.700	0.904
56.000	73.900	49.400	66.700	0.904
55.700	73.800	49.000	66.700	0.904
55.400	73.800	48.800	66.700	0.904
55.100	73.800	48.500	66.700	0.904
54.900	73.800	48.300	66.700	0.904
54.900	73.800	48.300	66.700	0.904
54.600	73.800	48.000	66.700	0.904
54.400	73.800	47.600	66.700	0.904
54.400	73.800	47.700	66.700	0.904
54.300	73.800	47.900	66.700	0.904
54.000	73.800	48.100	66.700	0.904
53.800	73.800	48.000	66.700	0.904
53.500	73.800	48.000	66.700	0.904
53.200	73.800	48.000	66.700	0.904
52.700	73.800	47.900	66.700	0.904
52.100	73.800	47.700	66.700	0.904
51.700	73.800	47.300	66.700	0.904
51.200	73.800	47.000	66.700	0.904
50.800	73.800	46.600	66.700	0.904
50.300	73.800	46.300	66.700	0.904
49.700	73.700	46.100	66.600	0.904
49.300	73.700	45.900	66.600	0.904
49.100	73.700	45.800	66.600	0.904
49.500	73.700	45.700	66.600	0.904
50.100	73.700	45.900	66.600	0.904
51.800	73.700	46.500	66.600	0.904
55.500	73.700	47.600	66.600	0.904
59.700	73.700	49.300	66.600	0.904
63.200	73.700	52.500	66.600	0.904
66.700	73.700	56.400	66.600	0.904
70.400	73.700	59.900	66.600	0.904
76.000	73.700	63.800	66.500	0.904
80.600	73.600	68.600	66.500	0.903
83.900	73.600	73.300	66.500	0.903
87.300	73.600	77.100	66.500	0.903
90.400	73.600	79.700	66.500	0.903
92.900	73.600	82.500	66.500	0.903
94.800	73.600	85.100	66.500	0.903
96.900	73.600	87.100	66.500	0.903
98.800	73.600	89.000	66.500	0.903
100.500	73.600	91.000	66.400	0.903
102.000	73.500	92.900	66.400	0.903
103.700	73.500	94.500	66.400	0.903
105.100	73.500	96.300	66.400	0.903
106.500	73.500	98.200	66.400	0.903
107.500	73.500	99.700	66.400	0.903
108.200	73.500	100.900	66.400	0.903
108.800	73.500	102.200	66.400	0.903
109.100	73.500	103.000	66.400	0.903
109.000	73.500	103.300	66.400	0.903
108.800	73.500	103.700	66.300	0.903
108.000	73.500	104.000	66.300	0.903
106.700	73.400	103.900	66.300	0.903
105.000	73.400	103.300	66.300	0.903
102.800	73.400	102.100	66.300	0.903
100.100	73.400	100.600	66.300	0.903
96.700	73.400	98.300	66.300	0.903
94.100	73.400	95.400	66.300	0.903
92.000	73.400	92.200	66.300	0.903
89.800	73.400	88.500	66.300	0.903
87.900	73.400	85.500	66.300	0.903
86.700	73.400	83.100	66.300	0.904
85.500	73.400	80.900	66.300	0.904
84.500	73.400	79.300	66.300	0.904
83.500	73.400	78.200	66.300	0.904
82.500	73.400	77.100	66.300	0.904
81.400	73.400	75.600	66.300	0.904
80.400	73.400	74.100	66.300	0.904
79.300	73.400	72.400	66.300	0.904
78.100	73.300	70.700	66.300	0.904
77.000	73.300	69.100	66.300	0.904
75.900	73.300	67.400	66.300	0.904
74.900	73.300	65.700	66.300	0.904
73.900	73.300	64.200	66.300	0.904
72.900	73.300	63.200	66.300	0.904
71.900	73.300	62.300	66.300	0.904
71.100	73.300	61.400	66.300	0.904
70.200	73.300	60.500	66.300	0.904
69.400	73.300	59.800	66.300	0.904
68.500	73.300	58.900	66.300	0.904
67.800	73.300	58.400	66.300	0.904
67.000	73.300	57.700	66.300	0.904
66.300	73.300	57.000	66.300	0.904
65.600	73.300	56.500	66.200	0.904
65.000	73.300	56.100	66.200	0.904
64.400	73.300	55.600	66.200	0.904
63.800	73.300	55.000	66.200	0.904
63.200	73.200	54.800	66.200	0.904
62.700	73.200	54.600	66.200	0.904
62.100	73.200	54.100	66.200	0.904
61.700	73.200	53.800	66.200	0.904
61.200	73.200	53.200	66.200	0.904
60.600	73.200	52.800	66.200	0.904
60.100	73.200	52.300	66.200	0.904
59.700	73.200	51.900	66.200	0.904
59.200	73.200	51.500	66.200	0.904
58.900	73.200	51.100	66.200	0.904
58.300	73.200	50.900	66.200	0.904
57.900	73.200	50.700	66.200	0.904
57.400	73.200	50.000	66.200	0.904
57.100	73.200	49.900	66.200	0.904
56.600	73.200	49.700	66.200	0.904
56.200	73.200	49.300	66.200	0.904
55.800	73.200	48.900	66.200	0.904
55.400	73.200	48.500	66.200	0.904
55.100	73.200	48.000	66.200	0.904
54.700	73.100	47.900	66.200	0.904
54.400	73.100	47.700	66.200	0.904
54.200	73.100	47.300	66.100	0.904
54.200	73.100	47.100	66.100	0.904
53.800	73.100	47.000	66.100	0.904
53.800	73.100	47.000	66.100	0.904
53.900	73.100	47.200	66.100	0.904
53.700	73.100	47.100	66.100	0.904
53.200	73.100	47.100	66.100	0.904
53.000	73.100	47.100	66.100	0.904
52.800	73.100	46.900	66.100	0.904
52.200	73.100	46.900	66.100	0.904
51.700	73.100	46.600	66.100	0.904
51.200	73.100	46.500	66.100	0.904
50.900	73.100	46.400	66.100	0.904
50.300	73.100	45.900	66.100	0.904
49.700	73.100	45.400	66.100	0.904
49.200	73.100	45.100	66.100	0.904
48.900	73.100	45.000	66.100	0.904
48.500	73.100	44.900	66.100	0.904
48.800	73.000	45.000	66.100	0.904
49.100	73.000	45.200	66.000	0.904
50.500	73.000	45.600	66.000	0.904
53.600	73.000	46.700	66.000	0.904
57.800	73.000	48.200	66.000	0.904
61.500	73.000	50.300	66.000	0.904
64.900	73.000	54.100	66.000	0.904
68.900	72.900	58.200	66.000	0.904
72.800	72.900	61.900	65.900	0.904
77.700	72.900	66.300	65.900	0.904
81.900	72.900	71.400	65.900	0.904
85.000	72.900	75.000	65.900	0.904
87.700	72.800	77.500	65.900	0.904
90.400	72.800	80.100	65.800	0.904
92.400	72.800	82.700	65.800	0.904
94.500	72.800	85.000	65.800	0.904
96.300	72.800	86.900	65.800	0.904
97.800	72.800	88.600	65.800	0.904
99.100	72.800	90.000	65.800	0.904
100.700	72.700	91.600	65.800	0.904
102.000	72.700	93.200	65.700	0.904
103.100	72.700	95.000	65.700	0.904
104.100	72.700	96.400	65.700	0.904
104.900	72.700	97.700	65.700	0.904
105.400	72.700	99.100	65.700	0.904
105.600	72.700	99.700	65.700	0.904
105.700	72.700	100.100	65.700	0.904
105.300	72.700	100.400	65.700	0.904
104.600	72.700	100.600	65.700	0.904
103.300	72.700	100.600	65.600	0.904
101.600	72.600	100.000	65.600	0.904
99.400	72.600	98.800	65.600	0.904
96.700	72.600	97.200	65.600	0.904
93.600	72.600	95.100	65.600	0.904
91.400	72.600	92.500	65.700	0.904
89.400	72.700	89.300	65.700	0.904
87.300	72.600	86.100	65.700	0.904
85.700	72.600	83.100	65.700	0.904
84.500	72.600	80.700	65.700	0.904
83.700	72.600	79.000	65.700	0.904
82.600	72.600	77.700	65.700	0.904
81.700	72.600	76.700	65.700	0.904
80.800	72.600	75.500	65.700	0.904
79.900	72.600	74.300	65.700	0.904
78.800	72.600	72.800	65.700	0.904
77.700	72.600	71.100	65.700	0.904
76.600	72.600	69.400	65.700	0.904
75.600	72.600	67.900	65.700	0.905
74.600	72.600	66.400	65.700	0.905
73.500	72.600	64.900	65.700	0.905
72.600	72.600	63.400	65.700	0.905
71.800	72.600	61.800	65.700	0.905
70.700	72.600	60.900	65.700	0.905
69.900	72.600	60.000	65.700	0.905
69.000	72.600	59.200	65.700	0.905
68.400	72.600	58.700	65.700	0.905
67.600	72.600	58.000	65.700	0.905
66.800	72.600	57.600	65.700	0.905
66.100	72.600	57.000	65.700	0.905
65.600	72.600	56.400	65.800	0.905
64.900	72.600	56.000	65.800	0.905
64.300	72.600	55.800	65.800	0.905
63.800	72.600	55.300	65.800	0.905
63.300	72.600	55.000	65.800	0.905
62.700	72.600	54.500	65.800	0.905
62.300	72.600	54.200	65.800	0.905
61.800	72.600	54.000	65.800	0.905
61.300	72.600	53.500	65.800	0.906
60.800	72.600	53.100	65.800	0.906
60.400	72.600	52.900	65.800	0.906
60.000	72.600	52.400	65.800	0.906
59.600	72.600	52.100	65.800	0.906
59.100	72.600	51.700	65.800	0.906
58.700	72.600	51.300	65.800	0.906
58.300	72.600	51.100	65.800	0.906
57.900	72.600	50.900	65.800	0.906
57.300	72.600	50.500	65.800	0.906
57.100	72.600	50.000	65.800	0.906
56.700	72.600	49.800	65.800	0.906
56.300	72.600	49.900	65.800	0.906
56.000	72.600	49.500	65.800	0.906
55.500	72.600	49.000	65.800	0.906
55.300	72.600	48.800	65.800	0.906
54.900	72.600	48.700	65.800	0.906
54.700	72.600	48.300	65.800	0.906
54.600	72.600	48.100	65.800	0.906
54.500	72.600	48.000	65.800	0.906
54.500	72.600	47.900	65.800	0.906
54.400	72.600	47.800	65.800	0.906
54.100	72.600	47.900	65.800	0.906
54.000	72.600	48.100	65.800	0.906
53.700	72.600	48.000	65.800	0.906
53.400	72.600	48.100	65.800	0.906
53.100	72.600	48.100	65.800	0.906
52.600	72.600	48.000	65.800	0.906
52.100	72.600	48.000	65.800	0.906
51.600	72.600	47.600	65.800	0.906
51.200	72.600	47.100	65.800	0.906
50.700	72.600	46.800	65.800	0.906
50.100	72.600	46.400	65.800	0.906
49.700	72.600	46.000	65.800	0.906
49.300	72.600	45.800	65.800	0.906
49.100	72.600	45.900	65.800	0.906
49.500	72.600	45.800	65.800	0.906
50.000	72.600	45.900	65.800	0.906
52.000	72.600	46.700	65.800	0.907
55.700	72.500	47.800	65.800	0.907
59.600	72.500	49.200	65.700	0.907
63.000	72.500	52.000	65.700	0.907
66.200	72.500	55.700	65.700	0.906
70.100	72.400	59.100	65.700	0.906
75.900	72.400	63.000	65.600	0.906
80.100	72.400	67.800	65.600	0.906
83.500	72.400	72.600	65.600	0.906
86.600	72.400	76.200	65.600	0.906
89.700	72.400	79.100	65.600	0.906
92.400	72.300	81.800	65.500	0.906
94.300	72.300	84.400	65.500	0.906
96.400	72.300	86.700	65.500	0.906
98.300	72.300	88.700	65.500	0.906
99.700	72.300	90.500	65.500	0.906
101.200	72.300	92.500	65.500	0.906
102.600	72.300	94.200	65.500	0.906
103.800	72.300	95.300	65.400	0.906
104.800	72.200	96.800	65.400	0.906
105.600	72.200	98.300	65.400	0.906
106.300	72.200	99.200	65.400	0.906
106.600	72.200	100.300	65.400	0.906
106.700	72.200	101.200	65.400	0.906
106.600	72.200	101.800	65.400	0.906
106.200	72.200	102.000	65.400	0.906
105.200	72.200	102.100	65.400	0.905
103.900	72.200	101.700	65.400	0.905
102.000	72.200	101.000	65.400	0.905
99.700	72.200	99.800	65.400	0.905
96.800	72.200	98.200	65.400	0.905
93.600	72.300	96.100	65.400	0.906
91.300	72.300	93.200	65.400	0.906
89.400	72.300	89.900	65.500	0.906
87.300	72.300	86.300	65.500	0.906
85.700	72.300	83.500	65.500	0.906
84.700	72.300	80.900	65.500	0.906
83.700	72.300	79.200	65.500	0.906
82.700	72.300	78.100	65.500	0.906
81.700	72.300	77.100	65.500	0.906
80.900	72.300	75.900	65.500	0.906
79.800	72.300	74.600	65.500	0.906
78.700	72.300	73.300	65.500	0.906
77.700	72.300	71.400	65.500	0.906
76.600	72.300	69.600	65.500	0.907
75.500	72.300	68.000	65.500	0.907
74.400	72.300	66.600	65.500	0.907
73.500	72.300	65.300	65.500	0.907
72.500	72.300	64.000	65.500	0.907
71.500	72.300	62.700	65.500	0.907
70.600	72.300	61.700	65.500	0.907
69.800	72.200	60.700	65.500	0.907
69.000	72.200	59.800	65.500	0.907
68.100	72.200	59.300	65.500	0.907
67.300	72.200	58.600	65.500	0.907
66.700	72.200	57.800	65.500	0.907
65.900	72.200	57.300	65.500	0.907
65.300	72.200	56.900	65.500	0.907
64.600	72.200	56.500	65.500	0.907
63.900	72.200	56.000	65.500	0.907
63.300	72.200	55.400	65.500	0.907
62.800	72.200	54.900	65.500	0.907
62.300	72.200	54.500	65.500	0.907
61.800	72.200	54.200	65.500	0.907
61.300	72.200	53.900	65.500	0.907
60.800	72.200	53.600	65.500	0.907
60.300	72.200	52.900	65.500	0.907
59.800	72.200	52.600	65.500	0.907
59.400	72.200	52.100	65.500	0.907
58.900	72.200	51.600	65.500	0.907
58.400	72.200	51.500	65.500	0.907
58.100	72.200	51.200	65.500	0.907
57.600	72.200	50.900	65.500	0.907
57.100	72.200	50.200	65.500	0.907
56.800	72.200	50.000	65.500	0.907
56.400	72.200	49.900	65.500	0.907
56.100	72.200	49.400	65.500	0.907
55.600	72.200	49.100	65.500	0.907
55.200	72.200	48.600	65.500	0.907
54.900	72.200	48.200	65.500	0.907
54.600	72.200	48.100	65.500	0.907
54.200	72.200	47.900	65.500	0.907
54.000	72.200	47.900	65.500	0.907
53.700	72.200	47.300	65.500	0.907
53.600	72.200	47.100	65.500	0.907
53.400	72.200	47.100	65.500	0.907
53.300	72.200	47.100	65.500	0.907
53.200	72.200	46.900	65.500	0.907
53.100	72.200	46.900	65.500	0.907
53.000	72.200	47.200	65.500	0.907
52.700	72.100	47.200	65.500	0.907
52.400	72.100	47.300	65.500	0.907
52.100	72.100	47.200	65.500	0.907
51.600	72.100	47.100	65.500	0.907
51.000	72.100	46.900	65.500	0.907
50.600	72.100	46.400	65.500	0.907
50.200	72.100	46.200	65.500	0.907
49.500	72.100	46.000	65.500	0.907
48.900	72.100	45.600	65.500	0.907
48.600	72.100	45.400	65.400	0.907
48.200	72.100	45.100	65.400	0.907
48.400	72.100	44.800	65.400	0.907
48.800	72.100	44.900	65.400	0.907
49.900	72.100	45.200	65.400	0.907
52.900	72.100	46.300	65.400	0.907
57.000	72.100	47.600	65.400	0.908
60.800	72.100	49.400	65.400	0.907
64.200	72.100	52.700	65.400	0.907
67.800	72.100	56.600	65.400	0.907
72.400	72.100	60.200	65.400	0.907
77.400	72.000	64.300	65.400	0.907
81.300	72.000	69.300	65.400	0.907
84.700	72.000	73.600	65.300	0.907
87.700	72.000	76.700	65.300	0.907
90.400	72.000	79.600	65.300	0.907
92.500	72.000	82.500	65.300	0.907
94.400	72.000	85.000	65.300	0.907
96.400	72.000	86.700	65.300	0.907
98.200	72.000	88.600	65.300	0.907
99.700	72.000	90.600	65.300	0.907
100.900	72.000	92.300	65.300	0.907
102.100	72.000	94.000	65.300	0.907
103.400	71.900	95.500	65.300	0.907
104.400	71.900	96.800	65.300	0.907
105.100	71.900	97.900	65.200	0.907
105.600	71.900	99.000	65.200	0.907
105.800	71.900	100.100	65.200	0.907
105.800	71.900	100.800	65.200	0.907
105.400	71.900	100.900	65.200	0.907
104.800	71.900	101.100	65.200	0.907
103.700	71.900	101.100	65.200	0.907
102.100	71.900	100.700	65.200	0.907
100.000	71.800	99.900	65.200	0.907
97.400	71.800	98.500	65.200	0.907
94.300	71.800	96.700	65.200	0.907
91.400	71.800	94.200	65.200	0.907
89.600	71.800	91.300	65.200	0.907
87.600	71.800	87.500	65.200	0.907
85.600	71.800	84.300	65.100	0.907
84.500	71.800	81.500	65.100	0.907
83.500	71.800	79.400	65.100	0.907
82.500	71.800	78.000	65.100	0.907
81.500	71.800	76.900	65.100	0.907
80.600	71.800	76.000	65.100	0.907
79.700	71.800	74.900	65.100	0.908
78.500	71.800	73.400	65.100	0.908
77.400	71.700	71.800	65.100	0.908
76.300	71.700	70.300	65.100	0.908
75.500	71.700	68.800	65.100	0.908
74.300	71.700	67.100	65.100	0.908
73.200	71.700	65.300	65.100	0.908
72.300	71.700	63.900	65.100	0.908
71.300	71.700	62.700	65.100	0.908
70.400	71.700	61.600	65.100	0.908
69.600	71.700	60.800	65.100	0.908
68.900	71.700	60.000	65.100	0.908
68.000	71.700	59.300	65.100	0.908
67.200	71.700	58.900	65.100	0.908
66.500	71.700	58.200	65.100	0.908
65.900	71.700	57.600	65.100	0.908
65.100	71.700	57.000	65.100	0.908
64.500	71.700	56.300	65.100	0.908
63.800	71.700	55.900	65.100	0.908
63.300	71.700	55.600	65.100	0.908
62.700	71.700	55.300	65.100	0.908
62.200	71.700	54.700	65.100	0.908
61.600	71.700	54.200	65.100	0.908
61.200	71.700	53.900	65.100	0.908
60.700	71.700	53.600	65.100	0.909
60.200	71.700	53.300	65.100	0.909
59.800	71.600	52.700	65.100	0.909
59.200	71.600	52.200	65.100	0.909
58.800	71.600	51.900	65.100	0.909
58.300	71.600	51.500	65.100	0.909
57.900	71.600	51.200	65.100	0.909
57.500	71.600	51.100	65.100	0.909
57.100	71.600	50.700	65.100	0.909
56.700	71.600	50.100	65.100	0.909
56.300	71.600	49.700	65.100	0.909
56.000	71.600	49.600	65.100	0.909
55.600	71.600	49.200	65.100	0.909
55.400	71.600	48.800	65.100	0.909
55.300	71.600	48.600	65.100	0.909
55.200	71.600	48.400	65.100	0.909
55.100	71.600	48.300	65.100	0.909
55.000	71.600	48.300	65.100	0.909
54.700	71.600	48.400	65.100	0.909
54.500	71.600	48.700	65.100	0.909
54.200	71.600	48.900	65.100	0.909
54.000	71.600	48.900	65.100	0.909
53.500	71.600	48.700	65.100	0.909
53.000	71.600	48.600	65.100	0.909
52.400	71.600	48.400	65.100	0.909
52.000	71.600	48.000	65.100	0.910
51.400	71.600	47.500	65.100	0.910
50.700	71.600	47.000	65.100	0.910
50.200	71.600	46.400	65.100	0.910
49.700	71.600	46.100	65.100	0.910
49.400	71.600	45.900	65.100	0.910
49.800	71.600	45.900	65.100	0.910
50.100	71.600	46.000	65.100	0.910
51.500	71.600	46.600	65.100	0.910
54.800	71.600	47.600	65.200	0.910
59.000	71.700	48.700	65.200	0.909
62.600	71.700	50.600	65.200	0.909
66.100	71.800	54.200	65.200	0.909
70.100	71.800	58.000	65.300	0.909
74.300	71.900	61.700	65.300	0.908
79.100	72.000	66.000	65.400	0.908
83.000	72.000	70.900	65.400	0.908
86.000	72.100	75.200	65.500	0.908
88.600	72.200	78.200	65.600	0.909
91.100	72.200	80.800	65.600	0.909
93.200	72.300	83.600	65.700	0.909
94.900	72.300	85.500	65.700	0.909
96.800	72.300	87.100	65.800	0.909
98.500	72.400	88.800	65.800	0.909
99.800	72.400	90.800	65.800	0.909
101.000	72.400	92.600	65.900	0.909
102.100	72.500	94.300	65.900	0.909
103.200	72.500	95.700	65.900	0.909
103.900	72.500	97.000	66.000	0.910
104.600	72.500	97.800	66.000	0.910
105.000	72.500	98.700	66.000	0.910
105.100	72.500	99.600	66.000	0.910
104.800	72.600	100.200	66.000	0.910
104.100	72.600	100.900	66.100	0.910
103.200	72.500	100.800	66.100	0.911
101.800	72.500	100.100	66.100	0.911
99.700	72.500	99.200	66.100	0.911
97.100	72.500	98.100	66.100	0.911
94.000	72.500	96.600	66.000	0.912
91.100	72.400	94.400	66.000	0.912
89.100	72.400	91.300	66.000	0.912
87.100	72.300	87.600	66.000	0.912
85.200	72.300	84.200	65.900	0.912
84.000	72.200	81.700	65.900	0.912
83.200	72.200	79.500	65.800	0.912
82.100	72.200	77.900	65.800	0.911
81.200	72.100	76.700	65.700	0.911
80.300	72.100	75.800	65.700	0.911
79.400	72.100	74.800	65.700	0.911
78.300	72.100	73.400	65.600	0.911
77.200	72.100	71.800	65.600	0.911
76.200	72.000	70.100	65.600	0.911
75.100	72.000	68.400	65.600	0.910
74.100	72.000	67.000	65.500	0.910
72.900	72.000	65.600	65.500	0.910
72.000	71.900	64.000	65.500	0.910
71.100	71.900	62.700	65.500	0.910
70.200	71.900	61.500	65.400	0.910
69.200	71.900	60.800	65.400	0.910
68.400	71.900	60.000	65.400	0.910
67.500	71.800	59.300	65.400	0.910
66.800	71.800	58.700	65.300	0.910
66.100	71.800	57.900	65.300	0.910
65.400	71.800	57.300	65.300	0.910
64.700	71.800	56.800	65.300	0.910
64.000	71.800	56.200	65.300	0.910
63.400	71.700	55.700	65.300	0.910
62.800	71.700	55.400	65.300	0.910
62.300	71.700	54.800	65.300	0.910
61.700	71.700	54.400	65.300	0.910
61.100	71.700	53.800	65.300	0.910
60.600	71.700	53.400	65.300	0.910
60.200	71.700	53.000	65.200	0.910
59.700	71.600	52.600	65.200	0.911
59.200	71.600	52.500	65.200	0.911
58.700	71.600	52.000	65.200	0.911
58.200	71.600	51.600	65.200	0.911
57.800	71.600	51.400	65.200	0.911
57.300	71.600	50.900	65.200	0.911
57.000	71.600	50.300	65.200	0.911
56.600	71.600	50.000	65.200	0.911
56.100	71.500	49.700	65.200	0.911
55.700	71.500	49.400	65.200	0.911
55.300	71.500	49.000	65.100	0.911
55.000	71.500	48.700	65.100	0.911
54.600	71.500	48.400	65.100	0.911
54.200	71.500	48.100	65.100	0.911
53.700	71.500	47.800	65.100	0.911
53.500	71.500	47.300	65.100	0.911
53.100	71.400	47.100	65.100	0.911
52.700	71.400	47.100	65.100	0.911
52.400	71.400	46.800	65.100	0.911
52.000	71.400	46.600	65.100	0.911
51.900	71.400	46.200	65.100	0.911
51.800	71.400	45.800	65.100	0.911
51.700	71.400	45.500	65.000	0.911
51.700	71.400	45.300	65.000	0.911
51.400	71.400	45.400	65.000	0.911
51.300	71.300	45.300	65.000	0.911
51.300	71.300	45.400	65.000	0.911
51.200	71.300	45.600	65.000	0.911
50.800	71.300	45.900	65.000	0.911
50.500	71.300	45.800	65.000	0.911
50.100	71.300	45.700	65.000	0.911
49.600	71.300	45.600	65.000	0.911
49.100	71.300	45.300	65.000	0.911
48.700	71.300	44.900	65.000	0.911
48.200	71.300	44.500	64.900	0.911
47.600	71.200	43.900	64.900	0.911
47.000	71.200	43.600	64.900	0.911
46.700	71.200	43.600	64.900	0.911
46.900	71.200	43.400	64.900	0.911
47.300	71.200	43.500	64.900	0.911
48.300	71.200	44.000	64.900	0.911
51.200	71.200	44.600	64.900	0.911
55.400	71.200	45.600	64.900	0.911
59.400	71.200	47.200	64.900	0.911
62.500	71.300	50.200	64.900	0.911
66.100	71.300	54.300	64.900	0.911
70.300	71.300	58.000	64.900	0.910
75.100	71.300	61.700	65.000	0.910
79.100	71.400	66.700	65.000	0.910
82.600	71.400	71.500	65.000	0.910
85.500	71.400	74.700	65.000	0.911
87.800	71.400	77.200	65.000	0.911
90.100	71.400	80.400	65.100	0.911
92.000	71.400	82.700	65.100	0.911
93.600	71.400	84.300	65.100	0.911
95.100	71.500	85.900	65.100	0.911
96.400	71.500	87.500	65.100	0.911
97.600	71.400	88.900	65.100	0.911
98.800	71.400	90.600	65.100	0.911
99.900	71.400	92.300	65.100	0.911
100.900	71.400	93.600	65.100	0.911
101.600	71.400	94.900	65.100	0.911
102.000	71.400	96.000	65.100	0.911
102.200	71.400	97.000	65.100	0.911
102.100	71.400	97.500	65.100	0.911
101.800	71.400	97.900	65.100	0.911
100.900	71.400	97.800	65.000	0.912
99.700	71.300	97.900	65.000	0.912
98.100	71.300	97.300	65.000	0.912
95.900	71.300	96.300	65.000	0.912
93.200	71.200	95.000	65.000	0.912
90.100	71.200	93.200	65.000	0.912
87.700	71.200	90.900	64.900	0.912
85.900	71.100	88.000	64.900	0.912
84.000	71.100	84.500	64.900	0.912
82.300	71.100	81.000	64.800	0.912
81.300	71.000	78.600	64.800	0.912
80.600	71.000	76.700	64.700	0.912
79.700	71.000	75.400	64.700	0.911
78.800	71.000	74.800	64.700	0.911
78.000	71.000	74.200	64.700	0.911
77.200	71.000	73.100	64.700	0.911
76.100	70.900	71.600	64.700	0.911
75.100	70.900	69.900	64.600	0.911
74.000	70.900	68.400	64.600	0.911
73.000	70.900	66.900	64.600	0.911
72.000	70.900	65.400	64.600	0.911
71.000	70.800	64.000	64.600	0.911
70.000	70.800	62.400	64.500	0.911
69.100	70.800	61.100	64.500	0.911
68.100	70.800	59.800	64.500	0.911
67.300	70.800	58.600	64.500	0.911
66.500	70.800	57.700	64.500	0.911
65.800	70.700	57.200	64.500	0.911
65.100	70.700	56.600	64.400	0.911
64.300	70.700	56.200	64.400	0.911
63.500	70.700	55.600	64.400	0.911
62.800	70.700	55.100	64.400	0.911
62.200	70.700	54.600	64.400	0.911
61.500	70.700	54.200	64.400	0.911
61.000	70.600	53.500	64.400	0.911
60.400	70.600	53.100	64.400	0.911
59.900	70.600	52.400	64.300	0.911
59.400	70.600	51.900	64.300	0.911
58.900	70.600	51.600	64.300	0.911
58.500	70.600	51.300	64.300	0.911
58.000	70.600	50.900	64.300	0.911
57.500	70.500	50.300	64.300	0.911
57.100	70.500	50.000	64.300	0.911
56.600	70.500	49.700	64.300	0.911
56.200	70.500	49.400	64.300	0.911
55.700	70.500	49.100	64.300	0.911
55.300	70.500	48.600	64.200	0.911
54.900	70.500	48.300	64.200	0.911
54.500	70.500	48.100	64.200	0.911
54.000	70.500	47.500	64.200	0.911
53.700	70.400	47.300	64.200	0.911
53.200	70.400	46.900	64.200	0.911
52.800	70.400	46.400	64.200	0.911
52.500	70.400	46.000	64.200	0.911
52.200	70.400	45.800	64.200	0.911
51.800	70.400	45.400	64.100	0.911
51.600	70.400	45.300	64.100	0.911
51.300	70.400	45.000	64.100	0.911
51.200	70.400	44.800	64.100	0.911
51.000	70.300	44.500	64.100	0.911
51.000	70.300	44.600	64.100	0.911
51.000	70.300	44.500	64.100	0.911
51.000	70.300	44.500	64.100	0.911
50.900	70.300	44.300	64.100	0.911
50.700	70.300	44.400	64.100	0.911
50.300	70.300	44.300	64.100	0.911
50.000	70.300	44.100	64.000	0.911
49.700	70.300	43.900	64.000	0.911
49.200	70.300	44.100	64.000	0.911
48.600	70.300	44.200	64.000	0.911
48.300	70.200	44.000	64.000	0.911
48.000	70.200	43.500	64.000	0.911
47.500	70.200	43.100	64.000	0.911
47.200	70.200	43.000	64.000	0.911
46.800	70.200	43.100	64.000	0.911
46.700	70.200	43.000	64.000	0.911
47.000	70.200	42.500	63.900	0.911
47.300	70.200	42.400	63.900	0.911
47.700	70.200	42.700	63.900	0.911
50.300	70.200	43.300	63.900	0.911
54.800	70.200	44.700	63.900	0.910
58.600	70.200	46.200	63.900	0.910
60.100	70.200	49.000	63.900	0.910
67.000	70.300	53.100	63.900	0.910
72.300	70.300	56.900	64.000	0.910
75.100	70.300	61.400	64.000	0.910
78.100	70.300	67.300	63.900	0.909
82.100	70.400	71.900	64.000	0.909
85.600	70.400	74.600	64.000	0.909
86.900	70.500	76.900	64.100	0.910
88.300	70.500	78.800	64.100	0.910
90.500	70.500	80.500	64.200	0.910
92.600	70.600	82.100	64.200	0.910
93.900	70.600	83.500	64.200	0.910
95.400	70.600	85.000	64.200	0.910
97.200	70.600	86.800	64.300	0.910
98.700	70.600	89.000	64.300	0.910
99.600	70.600	90.900	64.300	0.910
101.000	70.600	92.700	64.300	0.910
102.300	70.600	94.000	64.300	0.910
102.800	70.700	95.000	64.300	0.910
103.200	70.700	96.100	64.300	0.910
103.400	70.700	97.100	64.300	0.910
103.300	70.700	97.500	64.300	0.910
102.600	70.600	97.800	64.300	0.911
101.600	70.600	97.700	64.300	0.911
100.000	70.600	97.400	64.300	0.911
98.000	70.600	96.800	64.300	0.911
95.200	70.600	95.600	64.300	0.911
92.200	70.500	94.100	64.300	0.911
89.300	70.500	91.800	64.200	0.911
87.300	70.400	89.000	64.200	0.912
85.500	70.400	85.600	64.100	0.912
83.900	70.300	81.900	64.100	0.911
82.900	70.300	79.100	64.000	0.911
82.200	70.300	77.200	64.000	0.911
81.600	70.200	76.000	63.900	0.910
80.700	70.200	75.700	63.900	0.910
79.700	70.200	75.300	63.900	0.910
79.100	70.200	74.500	63.800	0.910
78.100	70.200	73.200	63.800	0.910
76.900	70.100	71.400	63.800	0.910
75.700	70.100	69.700	63.800	0.910
74.500	70.100	67.900	63.800	0.909
73.600	70.100	66.400	63.700	0.909
72.500	70.100	64.900	63.700	0.909
71.400	70.100	63.700	63.700	0.909
70.500	70.000	62.500	63.700	0.909
69.500	70.000	61.200	63.600	0.909
68.600	70.000	59.500	63.600	0.909
67.700	70.000	58.100	63.600	0.909
66.900	70.000	57.100	63.600	0.908
66.100	69.900	56.400	63.500	0.908
65.300	69.900	55.800	63.500	0.908
64.700	69.900	55.500	63.500	0.908
64.100	69.900	55.300	63.500	0.908
63.500	69.900	55.200	63.500	0.908
63.000	69.900	54.700	63.500	0.908
62.300	69.900	54.600	63.400	0.908
61.900	69.800	54.300	63.400	0.908
61.400	69.800	54.000	63.400	0.908
61.100	69.800	53.600	63.400	0.908
60.600	69.800	53.500	63.400	0.908
60.300	69.800	53.000	63.400	0.908
60.000	69.800	52.500	63.400	0.908
59.400	69.800	52.000	63.400	0.908
58.900	69.800	51.400	63.400	0.908
58.400	69.800	50.900	63.400	0.908
58.000	69.800	50.600	63.400	0.908
57.500	69.700	50.300	63.300	0.908
56.800	69.700	49.800	63.300	0.908
56.300	69.700	49.400	63.300	0.908
56.000	69.700	49.300	63.300	0.908
55.600	69.700	49.200	63.300	0.908
55.300	69.700	49.000	63.300	0.908
55.100	69.700	48.600	63.300	0.908
54.800	69.700	48.400	63.300	0.908
54.700	69.700	48.000	63.300	0.908
54.300	69.700	47.900	63.300	0.908
54.400	69.700	47.900	63.300	0.908
54.200	69.700	47.900	63.300	0.908
54.200	69.700	47.800	63.300	0.908
54.000	69.700	47.600	63.300	0.908
53.800	69.700	47.600	63.300	0.908
53.500	69.600	47.700	63.300	0.908
53.100	69.600	47.600	63.300	0.908
52.800	69.600	47.400	63.300	0.908
52.400	69.600	47.500	63.200	0.908
52.000	69.600	47.600	63.200	0.908
51.600	69.600	47.500	63.200	0.908
51.300	69.600	47.200	63.200	0.908
50.900	69.600	46.800	63.200	0.908
50.600	69.600	46.600	63.200	0.908
50.200	69.600	46.400	63.200	0.908
49.900	69.600	46.100	63.200	0.908
49.700	69.600	45.900	63.200	0.908
49.900	69.600	45.500	63.200	0.908
50.100	69.600	45.600	63.200	0.908
51.100	69.600	45.800	63.200	0.908
54.500	69.600	46.700	63.200	0.908
58.600	69.600	47.800	63.200	0.908
61.300	69.700	49.200	63.200	0.908
64.400	69.700	52.100	63.200	0.907
70.900	69.700	56.100	63.300	0.907
74.900	69.800	60.100	63.300	0.907
78.500	69.800	64.900	63.300	0.907
82.600	69.800	70.400	63.400	0.907
86.400	69.900	74.600	63.400	0.907
88.800	69.900	77.700	63.400	0.907
90.900	69.900	80.600	63.500	0.908
93.100	70.000	82.900	63.500	0.908
95.000	70.000	84.800	63.500	0.908
96.600	70.000	86.200	63.500	0.908
98.200	70.000	87.700	63.600	0.908
99.700	70.000	89.500	63.600	0.908
101.300	70.000	91.500	63.600	0.908
102.700	70.100	93.300	63.600	0.908
103.800	70.100	95.200	63.600	0.908
105.000	70.100	96.800	63.600	0.908
105.800	70.100	98.200	63.600	0.908
106.400	70.100	99.400	63.600	0.908
106.600	70.100	100.200	63.700	0.908
106.600	70.100	100.800	63.700	0.908
106.300	70.100	101.400	63.700	0.908
105.500	70.100	101.800	63.700	0.908
104.400	70.100	101.700	63.700	0.908
102.500	70.100	101.100	63.700	0.908
100.300	70.100	100.500	63.700	0.908
97.500	70.100	99.300	63.700	0.908
94.200	70.100	97.300	63.700	0.909
91.700	70.100	94.900	63.700	0.909
89.700	70.100	91.900	63.700	0.909
87.700	70.000	88.400	63.600	0.908
86.000	70.000	84.800	63.600	0.908
84.900	70.000	82.100	63.600	0.908
84.000	70.000	80.000	63.600	0.908
83.100	70.000	78.800	63.600	0.908
82.400	70.000	78.200	63.600	0.908
81.400	70.000	77.500	63.600	0.908
80.600	70.000	76.700	63.600	0.908
79.600	70.000	75.200	63.600	0.908
78.600	70.000	73.600	63.600	0.908
77.400	70.000	72.000	63.600	0.908
76.300	70.000	70.500	63.600	0.908
75.100	70.000	69.200	63.500	0.908
74.200	70.000	68.000	63.500	0.908
73.200	70.000	66.800	63.500	0.908
72.300	70.000	65.700	63.500	0.908
71.400	70.000	64.400	63.500	0.908
70.700	70.000	63.200	63.500	0.908
69.800	70.000	62.400	63.600	0.908
68.900	70.000	61.500	63.600	0.908
68.200	70.000	60.800	63.600	0.908
67.500	70.000	60.300	63.600	0.908
66.800	70.000	59.900	63.600	0.908
66.100	70.000	59.400	63.600	0.908
65.600	70.000	58.900	63.600	0.908
64.900	70.000	58.300	63.600	0.908
64.400	70.000	57.800	63.600	0.909
63.900	70.000	57.500	63.600	0.909
63.200	70.000	57.100	63.600	0.909
62.900	70.000	56.600	63.600	0.909
62.400	70.000	56.200	63.600	0.909
62.000	70.000	55.700	63.600	0.909
61.400	70.000	55.400	63.600	0.909
61.000	70.000	55.000	63.600	0.909
60.500	70.000	54.600	63.600	0.909
60.000	70.000	54.200	63.600	0.909
59.600	70.000	53.900	63.600	0.909
59.100	70.000	53.900	63.700	0.909
58.600	70.000	53.500	63.700	0.909
58.400	70.000	53.100	63.700	0.909
57.800	70.000	52.500	63.700	0.909
57.500	70.000	52.000	63.700	0.909
57.100	70.000	51.800	63.700	0.909
56.700	70.000	51.600	63.700	0.909
56.300	70.000	51.100	63.700	0.910
56.000	70.000	50.900	63.700	0.910
55.700	70.000	50.700	63.700	0.910
55.300	70.000	50.400	63.700	0.910
55.100	70.000	50.200	63.700	0.910
55.000	70.100	49.900	63.700	0.910
54.800	70.100	49.600	63.700	0.910
54.600	70.100	49.600	63.800	0.910
54.600	70.100	49.700	63.800	0.910
54.500	70.100	49.400	63.800	0.910
54.300	70.100	49.600	63.800	0.910
54.000	70.100	49.700	63.800	0.910
53.800	70.100	49.400	63.800	0.910
53.500	70.100	49.200	63.800	0.910
53.100	70.100	49.100	63.800	0.910
52.600	70.100	49.000	63.800	0.911
52.100	70.100	49.100	63.900	0.911
51.800	70.100	48.800	63.900	0.911
51.200	70.100	48.300	63.900	0.911
50.500	70.100	48.000	63.900	0.911
50.100	70.100	47.700	63.900	0.911
49.800	70.100	47.300	63.900	0.911
49.500	70.100	47.100	63.900	0.911
50.000	70.100	46.900	63.900	0.911
50.700	70.100	46.700	63.900	0.911
50.700	70.100	46.900	63.900	0.911
52.200	70.200	47.900	63.900	0.911
55.800	70.200	48.600	64.000	0.911
60.000	70.200	49.900	64.000	0.911
63.300	70.300	53.100	64.000	0.911
66.600	70.300	57.300	64.000	0.910
70.000	70.400	61.300	64.100	0.910
75.300	70.500	65.600	64.200	0.911
80.500	70.600	70.900	64.300	0.912
83.800	70.600	75.600	64.400	0.912
87.000	70.600	78.900	64.400	0.912
89.800	70.700	81.500	64.500	0.912
92.400	70.700	84.200	64.500	0.912
94.100	70.700	86.800	64.500	0.913
96.100	70.700	88.600	64.500	0.913
98.000	70.700	90.300	64.600	0.913
99.400	70.800	92.200	64.600	0.913
100.800	70.800	93.700	64.600	0.913
102.200	70.800	95.400	64.600	0.913
103.500	70.800	97.200	64.700	0.913
104.500	70.800	98.500	64.700	0.913
105.500	70.800	99.700	64.700	0.913
106.300	70.900	101.100	64.700	0.914
106.600	70.900	101.900	64.800	0.914
106.700	70.900	102.400	64.800	0.914
106.600	70.900	102.800	64.800	0.914
106.000	70.900	102.800	64.800	0.914
105.100	70.900	102.600	64.800	0.914
103.700	70.900	102.300	64.900	0.914
102.000	71.000	101.300	64.900	0.914
99.600	71.000	99.800	64.900	0.914
96.700	71.000	97.800	64.900	0.914
93.400	71.000	95.300	64.900	0.914
91.000	71.000	92.400	64.900	0.914
89.200	71.000	88.600	64.900	0.914
86.900	71.000	85.100	64.900	0.914
85.400	71.000	82.500	64.900	0.914
84.300	71.000	80.200	64.800	0.914
83.500	71.000	79.000	64.900	0.914
82.500	71.000	78.500	64.900	0.914
81.700	71.000	77.600	64.900	0.914
80.700	71.000	76.500	64.900	0.914
80.000	71.000	75.300	64.900	0.914
78.800	71.000	74.000	64.900	0.914
77.800	71.000	72.600	64.900	0.913
76.800	71.000	71.000	64.900	0.913
75.800	71.000	69.800	64.900	0.913
74.800	71.000	68.500	64.900	0.913
73.800	71.000	67.400	64.900	0.913
72.800	71.100	66.100	64.900	0.913
71.900	71.100	64.900	64.900	0.914
70.900	71.100	64.000	64.900	0.914
70.100	71.100	63.400	64.900	0.914
69.400	71.100	63.100	64.900	0.914
68.500	71.100	62.400	65.000	0.914
67.800	71.100	61.500	65.000	0.914
67.100	71.100	60.900	65.000	0.914
66.600	71.100	60.500	65.000	0.914
65.800	71.100	60.000	65.000	0.914
65.100	71.100	59.500	65.000	0.914
64.600	71.100	58.900	65.000	0.915
64.000	71.100	58.500	65.100	0.915
63.500	71.100	58.300	65.100	0.915
62.900	71.200	57.600	65.100	0.915
62.400	71.200	56.900	65.100	0.915
61.900	71.200	56.600	65.100	0.915
61.400	71.200	56.100	65.100	0.915
61.000	71.200	55.700	65.200	0.915
60.500	71.200	55.300	65.200	0.915
60.100	71.200	55.000	65.200	0.915
59.600	71.200	54.500	65.200	0.916
59.200	71.200	54.100	65.200	0.916
58.900	71.200	53.800	65.200	0.916
58.300	71.200	53.500	65.200	0.916
57.900	71.200	53.200	65.300	0.916
57.500	71.300	52.800	65.300	0.916
57.200	71.300	52.500	65.300	0.916
56.700	71.300	52.100	65.300	0.916
56.300	71.300	51.800	65.300	0.916
56.000	71.300	51.500	65.300	0.916
55.600	71.300	51.000	65.300	0.916
55.100	71.300	50.700	65.400	0.917
54.800	71.300	50.500	65.400	0.917
54.600	71.300	50.200	65.400	0.917
54.400	71.300	50.000	65.400	0.917
54.200	71.300	49.600	65.400	0.917
54.100	71.300	49.700	65.400	0.917
54.000	71.400	49.800	65.400	0.917
54.000	71.400	49.700	65.500	0.917
53.800	71.400	49.700	65.500	0.917
53.600	71.400	49.800	65.500	0.918
53.300	71.400	49.600	65.500	0.918
53.100	71.400	49.600	65.500	0.918
52.700	71.400	49.700	65.600	0.918
52.100	71.400	49.200	65.600	0.918
51.700	71.400	49.100	65.600	0.918
51.200	71.400	48.700	65.600	0.918
50.800	71.400	48.100	65.600	0.918
50.100	71.400	47.700	65.600	0.919
49.500	71.400	47.200	65.600	0.919
49.100	71.500	46.900	65.600	0.919
48.700	71.500	46.600	65.700	0.919
48.900	71.500	46.400	65.700	0.919
49.300	71.500	46.400	65.700	0.919
50.300	71.500	46.800	65.700	0.919
52.700	71.500	47.600	65.700	0.919
57.000	71.500	48.700	65.700	0.919
60.800	71.600	50.300	65.800	0.919
64.000	71.600	54.000	65.800	0.919
67.500	71.600	58.100	65.800	0.919
71.100	71.700	62.000	65.900	0.919
76.700	71.700	67.000	65.900	0.919
81.600	71.700	72.200	65.800	0.919
84.600	71.700	76.400	65.900	0.919
87.400	71.800	79.900	66.000	0.919
90.400	71.900	82.800	66.100	0.920
93.400	71.900	85.300	66.200	0.920
94.800	72.000	87.600	66.200	0.920
96.500	72.000	89.300	66.300	0.920
98.400	72.100	91.000	66.300	0.921
100.000	72.100	92.600	66.400	0.921
101.600	72.200	94.500	66.400	0.921
102.800	72.200	96.500	66.500	0.921
103.900	72.200	98.100	66.500	0.921
105.100	72.300	99.600	66.600	0.922
106.000	72.300	100.700	66.600	0.922
106.600	72.300	101.500	66.700	0.922
106.900	72.400	102.400	66.700	0.922
106.900	72.400	103.100	66.800	0.923
106.600	72.400	103.400	66.800	0.923
106.100	72.400	103.400	66.800	0.923
105.100	72.400	103.200	66.900	0.923
103.600	72.400	102.700	66.900	0.924
101.600	72.400	101.700	66.900	0.924
99.100	72.400	100.200	66.900	0.924
96.100	72.400	98.000	66.900	0.924
93.000	72.400	95.300	66.900	0.925
90.900	72.300	92.100	66.900	0.925
89.000	72.300	88.400	66.900	0.925
86.900	72.300	85.000	66.800	0.925
85.400	72.200	82.700	66.800	0.924
84.400	72.200	81.200	66.800	0.924
83.400	72.200	79.900	66.700	0.924
82.500	72.200	78.900	66.700	0.924
81.600	72.200	78.000	66.700	0.924
80.800	72.200	77.000	66.700	0.924
79.800	72.200	76.000	66.700	0.924
78.700	72.200	74.700	66.700	0.924
77.700	72.200	73.400	66.700	0.924
76.700	72.200	71.800	66.700	0.924
75.700	72.100	70.100	66.600	0.924
74.700	72.100	68.900	66.600	0.924
73.700	72.100	67.700	66.600	0.924
72.600	72.100	67.000	66.600	0.924
71.700	72.100	66.200	66.600	0.924
70.800	72.100	65.400	66.600	0.924
70.000	72.100	64.700	66.600	0.924
69.200	72.100	64.200	66.600	0.924
68.400	72.100	63.300	66.600	0.924
67.700	72.100	62.700	66.600	0.924
67.000	72.100	62.100	66.600	0.924
66.300	72.100	61.100	66.600	0.925
65.600	72.100	60.600	66.600	0.925
65.000	72.100	60.100	66.700	0.925
64.400	72.000	59.500	66.700	0.925
63.800	72.000	59.000	66.700	0.925
63.400	72.000	58.400	66.700	0.926
62.900	72.000	57.900	66.700	0.926
62.400	72.000	57.500	66.700	0.926
61.800	72.000	56.900	66.700	0.926
61.300	72.000	56.500	66.700	0.926
60.900	72.000	56.300	66.700	0.926
60.500	72.000	56.000	66.700	0.926
59.900	72.000	55.400	66.700	0.927
59.500	72.000	54.900	66.700	0.927
59.000	72.000	54.600	66.800	0.927
58.600	72.000	54.100	66.800	0.927
58.200	72.000	53.800	66.800	0.927
57.800	72.000	53.400	66.800	0.927
57.500	72.000	53.100	66.800	0.927
57.000	72.000	52.800	66.800	0.927
56.700	72.000	52.200	66.800	0.928
56.300	72.000	52.000	66.800	0.928
55.900	72.000	51.800	66.800	0.928
55.500	72.000	51.300	66.800	0.928
55.200	72.000	51.000	66.800	0.928
55.100	72.000	50.900	66.800	0.928
55.000	72.000	50.900	66.800	0.928
54.800	72.000	50.500	66.800	0.928
54.600	72.000	50.500	66.900	0.928
54.600	72.000	50.500	66.900	0.928
54.500	72.000	50.500	66.900	0.929
54.000	72.000	50.700	66.900	0.929
53.900	72.000	50.800	66.900	0.929
53.600	72.000	50.700	66.900	0.929
53.300	72.000	50.400	66.900	0.929
52.700	72.000	50.300	66.900	0.929
52.200	72.000	50.000	66.900	0.929
51.800	72.000	49.500	66.900	0.930
51.300	72.000	48.900	66.900	0.930
50.700	72.000	48.500	66.900	0.930
50.200	72.000	47.900	66.900	0.930
49.700	72.000	47.700	66.900	0.930
49.400	72.000	47.400	67.000	0.930
49.300	72.000	47.200	67.000	0.930
49.600	72.000	47.200	67.000	0.930
50.400	72.000	47.400	67.000	0.930
52.100	72.000	48.200	67.000	0.930
55.900	72.000	49.100	67.000	0.930
60.200	72.000	49.800	67.000	0.930
63.500	72.100	52.600	67.000	0.930
67.100	72.100	56.500	67.000	0.930
71.200	72.100	60.600	67.100	0.930
75.200	72.200	65.500	67.100	0.930
80.200	72.100	71.300	67.200	0.931
84.000	72.100	76.100	67.200	0.932
87.200	72.100	78.900	67.200	0.932
89.900	72.100	81.700	67.200	0.932
92.200	72.100	84.700	67.200	0.932
94.300	72.100	87.300	67.200	0.932
96.000	72.100	89.400	67.200	0.932
97.600	72.100	91.000	67.200	0.932
99.100	72.100	92.600	67.200	0.933
100.500	72.100	94.500	67.300	0.933
101.700	72.100	96.000	67.300	0.933
102.700	72.100	97.200	67.300	0.933
103.600	72.100	98.600	67.300	0.933
104.400	72.100	99.800	67.300	0.933
105.000	72.100	100.400	67.300	0.933
105.300	72.100	101.200	67.300	0.934
105.200	72.100	102.000	67.300	0.934
104.900	72.100	102.500	67.300	0.934
104.300	72.100	102.600	67.300	0.934
103.200	72.100	102.200	67.300	0.934
101.600	72.100	101.600	67.300	0.934
99.500	72.100	100.200	67.300	0.934
97.000	72.100	98.500	67.300	0.934
93.700	72.100	96.600	67.300	0.934
90.700	72.100	94.100	67.300	0.934
88.900	72.100	90.800	67.300	0.934
87.000	72.000	86.900	67.300	0.934
85.100	72.000	83.300	67.300	0.934
83.900	72.000	81.100	67.300	0.934
83.100	72.000	79.600	67.300	0.934
82.300	72.000	78.900	67.300	0.934
81.400	72.000	78.500	67.300	0.934
80.400	72.000	77.600	67.300	0.934
79.600	72.000	76.800	67.300	0.934
78.700	72.000	75.500	67.300	0.934
77.600	72.000	74.300	67.300	0.934
76.600	72.000	73.100	67.300	0.934
75.600	72.000	71.400	67.300	0.934
74.500	72.000	69.700	67.300	0.934
73.600	72.000	68.500	67.300	0.934
72.600	72.000	67.300	67.300	0.934
71.600	72.000	66.400	67.300	0.935
70.700	72.000	65.700	67.300	0.935
69.900	72.000	65.000	67.300	0.935
69.100	72.000	64.400	67.300	0.935
68.300	72.000	63.800	67.300	0.935
67.500	72.000	63.000	67.300	0.935
66.900	72.000	62.400	67.300	0.935
66.200	72.000	61.700	67.300	0.935
65.500	72.000	61.100	67.300	0.935
64.800	72.000	60.600	67.400	0.936
64.400	72.000	60.000	67.400	0.936
63.700	72.000	59.400	67.400	0.936
63.100	72.000	58.700	67.400	0.936
62.600	72.000	58.200	67.400	0.936
62.100	72.000	57.800	67.400	0.936
61.600	72.000	57.600	67.400	0.936
61.100	72.000	57.000	67.400	0.936
60.700	72.000	56.600	67.400	0.936
60.200	72.000	56.100	67.400	0.936
59.800	72.000	55.800	67.400	0.936
59.300	72.000	55.500	67.400	0.937
58.900	72.000	55.200	67.400	0.937
58.400	72.000	54.600	67.400	0.937
58.000	72.000	54.200	67.400	0.937
57.600	72.000	53.800	67.400	0.937
57.300	72.000	53.500	67.400	0.937
56.900	71.900	53.100	67.400	0.937
56.600	71.900	52.800	67.400	0.937
56.200	71.900	52.300	67.400	0.937
55.900	71.900	52.000	67.400	0.937
55.400	71.900	51.600	67.400	0.937
55.100	71.900	51.400	67.400	0.937
54.800	71.900	51.200	67.400	0.937
54.600	71.900	50.800	67.400	0.937
54.500	71.900	50.500	67.400	0.937
54.300	71.900	50.500	67.400	0.937
54.300	71.900	50.500	67.400	0.938
54.100	71.900	50.400	67.400	0.938
53.900	71.900	50.300	67.400	0.938
53.600	71.900	50.300	67.400	0.938
53.400	71.900	50.300	67.400	0.938
53.000	71.900	50.200	67.500	0.938
52.600	71.900	49.900	67.500	0.938
52.200	71.900	49.900	67.500	0.938
51.700	71.900	49.600	67.500	0.938
51.200	71.900	48.900	67.500	0.938
50.700	71.900	48.500	67.500	0.938
50.300	71.900	48.100	67.500	0.938
49.800	71.900	47.600	67.500	0.938
49.300	71.900	47.600	67.500	0.938
48.800	71.900	47.200	67.500	0.938
48.600	71.900	46.700	67.500	0.938
49.000	71.900	46.700	67.500	0.938
49.300	71.900	46.900	67.500	0.938
50.700	71.900	47.300	67.500	0.938
53.900	71.900	48.000	67.500	0.938
58.200	71.900	48.900	67.500	0.938
61.800	71.900	50.700	67.500	0.938
65.400	71.900	54.300	67.500	0.938
69.400	71.900	58.400	67.500	0.938
73.500	71.900	63.200	67.500	0.938
78.100	71.800	68.800	67.400	0.938
82.000	71.800	74.000	67.400	0.938
85.100	71.800	77.500	67.400	0.938
87.700	71.800	80.000	67.300	0.938
90.300	71.700	82.600	67.300	0.938
92.400	71.700	85.100	67.300	0.938
93.800	71.700	87.300	67.300	0.938
95.400	71.700	89.000	67.300	0.938
96.700	71.700	90.600	67.300	0.938
98.000	71.600	91.900	67.200	0.938
99.200	71.600	93.500	67.200	0.938
100.200	71.600	94.900	67.200	0.938
101.400	71.600	96.300	67.200	0.938
102.100	71.600	97.500	67.200	0.938
102.600	71.600	98.300	67.200	0.938
102.800	71.600	99.300	67.200	0.938
102.800	71.500	100.000	67.100	0.938
102.500	71.500	100.100	67.100	0.938
101.800	71.500	99.900	67.100	0.938
100.800	71.500	99.700	67.100	0.938
99.300	71.500	99.200	67.100	0.938
97.100	71.500	98.400	67.100	0.938
94.500	71.500	97.000	67.100	0.938
91.600	71.500	95.000	67.100	0.939
89.500	71.500	92.300	67.100	0.939
87.500	71.500	88.900	67.200	0.939
85.500	71.500	85.600	67.200	0.939
83.900	71.500	82.800	67.200	0.939
82.900	71.500	80.600	67.200	0.939
81.900	71.500	79.300	67.200	0.939
81.000	71.500	78.700	67.200	0.939
80.200	71.500	78.100	67.200	0.939
79.300	71.500	77.100	67.200	0.940
78.300	71.500	76.000	67.200	0.940
77.400	71.500	74.800	67.200	0.940
76.400	71.500	73.400	67.200	0.940
75.400	71.500	71.800	67.200	0.940
74.200	71.500	70.700	67.200	0.940
73.100	71.500	69.200	67.200	0.940
72.100	71.500	67.800	67.200	0.940
71.200	71.500	66.500	67.300	0.940
70.200	71.500	65.300	67.300	0.941
69.300	71.500	64.500	67.300	0.941
68.500	71.500	64.000	67.300	0.941
67.700	71.500	63.500	67.300	0.941
67.000	71.500	62.600	67.300	0.941
66.100	71.500	61.900	67.300	0.941
65.500	71.500	61.200	67.300	0.941
64.800	71.500	60.500	67.300	0.941
64.100	71.500	60.000	67.300	0.941
63.600	71.500	59.600	67.300	0.941
63.000	71.500	58.900	67.300	0.941
62.500	71.500	58.500	67.300	0.941
61.900	71.500	58.200	67.300	0.941
61.400	71.500	57.600	67.300	0.942
61.000	71.500	57.100	67.300	0.942
60.500	71.500	56.800	67.300	0.942
60.000	71.500	56.500	67.300	0.942
59.600	71.500	56.100	67.300	0.942
59.200	71.500	55.700	67.300	0.942
58.800	71.400	55.100	67.300	0.942
58.400	71.400	54.800	67.300	0.942
58.000	71.400	54.300	67.300	0.942
57.600	71.400	53.800	67.300	0.942
57.200	71.400	53.400	67.300	0.942
56.800	71.400	53.300	67.300	0.942
56.400	71.400	53.100	67.300	0.942
56.200	71.400	52.800	67.300	0.942
55.900	71.400	52.400	67.300	0.942
55.400	71.400	52.100	67.300	0.942
55.100	71.400	51.700	67.300	0.942
54.900	71.400	51.300	67.300	0.942
54.600	71.400	51.100	67.300	0.943
54.300	71.400	50.900	67.300	0.943
54.200	71.400	50.700	67.300	0.943
54.100	71.400	50.700	67.300	0.943
54.000	71.400	50.700	67.300	0.943
54.000	71.400	50.500	67.300	0.943
54.100	71.400	50.600	67.300	0.943
54.100	71.400	50.800	67.300	0.943
53.700	71.400	50.900	67.300	0.943
53.400	71.400	50.600	67.300	0.943
53.000	71.400	50.300	67.400	0.943
52.800	71.400	50.300	67.400	0.943
52.200	71.400	50.000	67.400	0.943
51.600	71.400	49.900	67.400	0.943
51.300	71.400	49.600	67.400	0.943
51.000	71.400	49.000	67.400	0.943
50.600	71.400	48.500	67.400	0.943
50.100	71.400	48.300	67.400	0.943
49.600	71.400	48.200	67.400	0.943
49.500	71.400	48.100	67.400	0.943
49.700	71.400	47.900	67.400	0.943
49.900	71.400	47.900	67.400	0.943
50.500	71.400	48.000	67.400	0.943
52.500	71.400	48.500	67.400	0.943
56.400	71.400	49.400	67.400	0.943
60.500	71.400	50.200	67.400	0.943
63.800	71.400	52.300	67.400	0.943
67.400	71.400	56.300	67.400	0.943
71.100	71.400	60.800	67.400	0.943
75.300	71.400	65.500	67.400	0.943
80.700	71.400	71.500	67.400	0.943
84.100	71.400	76.400	67.400	0.943
86.600	71.400	78.900	67.400	0.943
89.000	71.400	81.300	67.400	0.943
91.600	71.400	84.600	67.400	0.943
93.400	71.400	87.400	67.400	0.943
95.000	71.400	89.200	67.400	0.943
96.200	71.400	90.500	67.400	0.943
97.700	71.400	92.000	67.400	0.944
99.000	71.400	93.600	67.400	0.944
100.200	71.400	95.000	67.400	0.944
100.900	71.400	96.300	67.300	0.944
101.700	71.400	97.400	67.300	0.944
102.400	71.300	98.400	67.300	0.944
102.900	71.300	99.200	67.300	0.944
102.900	71.300	99.900	67.300	0.944
102.700	71.300	100.400	67.300	0.944
102.300	71.300	100.600	67.300	0.944
101.600	71.300	100.400	67.300	0.944
100.200	71.300	100.200	67.300	0.944
98.400	71.200	99.500	67.300	0.944
96.100	71.200	98.100	67.300	0.944
93.400	71.200	96.300	67.200	0.944
90.300	71.200	94.100	67.200	0.944
88.300	71.200	91.500	67.200	0.945
86.700	71.200	88.000	67.200	0.945
84.800	71.100	84.500	67.200	0.945
83.500	71.100	82.200	67.200	0.945
82.700	71.100	80.500	67.200	0.945
82.100	71.100	79.300	67.200	0.945
81.200	71.100	78.900	67.200	0.945
80.400	71.100	78.600	67.200	0.945
79.500	71.100	78.300	67.200	0.945
78.600	71.100	77.200	67.200	0.945
77.600	71.100	75.700	67.200	0.945
76.500	71.100	74.300	67.200	0.945
75.500	71.100	73.000	67.200	0.945
74.500	71.100	71.500	67.200	0.945
73.500	71.000	70.500	67.200	0.945
72.500	71.000	69.600	67.200	0.945
71.500	71.000	68.300	67.200	0.946
70.700	71.000	67.300	67.200	0.946
69.900	71.000	66.200	67.200	0.946
69.100	71.000	65.300	67.200	0.946
68.400	71.000	64.600	67.200	0.946
67.700	71.000	64.100	67.200	0.946
66.900	71.000	63.600	67.200	0.946
66.200	71.000	62.700	67.200	0.946
65.600	71.000	62.000	67.200	0.946
64.900	71.000	61.500	67.200	0.946
64.300	71.000	61.100	67.200	0.946
63.700	71.000	60.600	67.200	0.946
63.100	71.000	60.300	67.200	0.946
62.600	71.000	59.700	67.200	0.947
62.100	71.000	59.100	67.200	0.947
61.600	71.000	58.600	67.200	0.947
61.200	71.000	58.000	67.200	0.947
60.700	71.000	57.500	67.200	0.947
60.200	71.000	57.100	67.200	0.947
59.800	70.900	56.700	67.200	0.947
59.300	70.900	56.200	67.200	0.947
58.900	70.900	55.900	67.200	0.947
58.600	70.900	55.600	67.200	0.947
58.200	70.900	55.300	67.200	0.947
57.700	70.900	54.800	67.200	0.947
57.300	70.900	54.400	67.200	0.947
56.800	70.900	54.000	67.200	0.948
56.400	70.900	53.600	67.200	0.948
56.100	70.900	53.300	67.200	0.948
55.800	70.900	53.000	67.200	0.948
55.400	70.900	52.600	67.200	0.948
55.100	70.900	52.200	67.200	0.948
54.700	70.900	51.800	67.200	0.948
54.400	70.900	51.800	67.200	0.948
54.200	70.900	51.500	67.200	0.948
54.000	70.900	51.100	67.200	0.948
53.900	70.900	51.000	67.200	0.948
53.900	70.900	50.600	67.200	0.948
53.900	70.900	50.800	67.200	0.948
53.600	70.900	51.100	67.200	0.948
53.500	70.900	51.200	67.200	0.948
53.200	70.900	51.300	67.200	0.948
53.000	70.900	51.000	67.200	0.948
52.500	70.900	50.600	67.200	0.948
52.000	70.900	50.400	67.200	0.949
51.600	70.900	50.100	67.200	0.949
51.200	70.900	49.700	67.200	0.949
50.700	70.900	49.200	67.200	0.949
50.200	70.900	48.700	67.200	0.949
49.600	70.900	48.500	67.200	0.949
49.200	70.900	48.000	67.200	0.949
48.700	70.900	47.600	67.200	0.949
48.600	70.900	47.400	67.200	0.949
48.900	70.900	47.300	67.200	0.949
49.500	70.900	47.400	67.200	0.949
51.100	70.900	47.700	67.200	0.949
54.600	70.900	48.300	67.200	0.949
58.900	70.800	48.900	67.200	0.949
62.300	70.800	50.400	67.200	0.949
65.900	70.800	54.100	67.200	0.949
69.800	70.800	58.300	67.200	0.949
74.200	70.800	63.200	67.200	0.949
79.100	70.800	69.300	67.200	0.949
83.000	70.800	74.900	67.200	0.949
86.100	70.800	78.600	67.200	0.949
88.800	70.800	81.000	67.200	0.949
91.400	70.800	83.500	67.200	0.949
93.500	70.800	86.300	67.200	0.949
95.000	70.800	88.700	67.200	0.949
96.700	70.800	90.600	67.200	0.949
98.300	70.800	92.600	67.200	0.949
100.000	70.800	93.900	67.200	0.949
101.100	70.800	95.300	67.200	0.949
102.300	70.800	97.000	67.200	0.949
103.500	70.800	98.700	67.200	0.949
104.300	70.800	100.000	67.200	0.949
104.800	70.800	100.800	67.200	0.949
105.200	70.800	101.500	67.200	0.949
105.300	70.800	102.500	67.200	0.949
105.100	70.800	102.900	67.200	0.949
104.500	70.800	103.000	67.200	0.949
103.500	70.800	103.000	67.200	0.949
102.100	70.800	102.400	67.200	0.949
100.100	70.800	101.600	67.200	0.949
97.800	70.800	100.300	67.200	0.949
94.700	70.800	98.500	67.200	0.949
92.000	70.800	96.200	67.200	0.949
89.900	70.800	93.000	67.200	0.949
88.000	70.800	89.700	67.200	0.949
86.200	70.800	86.200	67.200	0.949
84.900	70.800	83.800	67.200	0.949
84.000	70.800	82.000	67.200	0.949
82.900	70.800	80.900	67.300	0.950
82.000	70.800	80.400	67.300	0.950
81.200	70.800	79.900	67.300	0.950
80.300	70.800	79.000	67.300	0.950
79.300	70.800	77.900	67.300	0.950
78.300	70.800	76.600	67.300	0.950
77.300	70.800	75.400	67.300	0.950
76.300	70.800	74.200	67.300	0.950
75.300	70.800	72.700	67.300	0.950
74.200	70.900	71.200	67.300	0.950
73.300	70.900	70.200	67.300	0.950
72.300	70.900	69.300	67.300	0.950
71.400	70.900	68.300	67.400	0.951
70.600	70.900	67.500	67.400	0.951
69.800	70.900	66.700	67.400	0.951
69.000	70.900	66.000	67.400	0.951
68.200	70.900	65.400	67.400	0.951
67.500	70.900	64.700	67.400	0.951
66.700	70.900	64.000	67.400	0.951
66.100	70.900	63.200	67.400	0.951
65.400	70.900	62.400	67.400	0.951
64.800	70.900	61.700	67.400	0.951
64.200	70.900	61.000	67.400	0.951
63.500	70.900	60.600	67.400	0.951
63.000	70.900	60.000	67.400	0.951
62.500	70.900	59.700	67.400	0.951
62.000	70.900	59.200	67.400	0.952
61.500	70.900	58.800	67.500	0.952
61.000	70.900	58.200	67.500	0.952
60.500	70.900	57.600	67.500	0.952
60.000	70.900	57.400	67.500	0.952
59.600	70.900	57.100	67.500	0.952
59.100	70.900	56.700	67.500	0.952
58.700	70.900	55.900	67.500	0.952
58.300	70.900	55.500	67.500	0.952
57.900	70.900	55.200	67.500	0.952
57.400	70.900	54.800	67.500	0.952
57.000	70.900	54.400	67.500	0.952
56.700	70.900	54.100	67.500	0.952
56.200	70.900	53.600	67.500	0.952
55.800	70.900	53.100	67.500	0.952
55.600	70.900	52.800	67.500	0.952
55.300	70.900	52.400	67.500	0.952
55.100	70.900	52.000	67.500	0.952
55.000	70.900	52.100	67.500	0.952
54.900	70.900	51.900	67.500	0.953
54.700	70.900	52.000	67.500	0.953
54.600	70.900	51.900	67.500	0.953
54.400	70.900	51.800	67.500	0.953
54.000	70.900	51.800	67.500	0.953
53.700	70.900	51.500	67.600	0.953
53.500	70.900	51.300	67.600	0.953
52.900	70.900	51.300	67.600	0.953
52.300	70.900	51.100	67.600	0.953
51.900	70.900	50.700	67.600	0.953
51.500	70.900	50.100	67.600	0.953
50.900	70.900	49.500	67.600	0.953
50.400	70.900	48.900	67.600	0.953
49.800	70.900	48.300	67.600	0.953
49.500	70.900	48.000	67.600	0.953
49.200	70.900	48.000	67.600	0.953
49.300	70.900	48.000	67.600	0.953
49.400	70.900	47.800	67.600	0.953
50.000	70.900	47.700	67.600	0.953
52.100	70.900	48.200	67.600	0.953
56.100	70.900	48.800	67.600	0.953
60.000	70.900	49.200	67.600	0.953
63.500	71.000	51.100	67.600	0.953
67.000	71.000	54.900	67.600	0.953
71.500	71.000	59.200	67.600	0.953
75.500	71.000	64.300	67.700	0.953
79.800	71.000	70.500	67.700	0.953
83.600	71.100	76.000	67.700	0.953
87.100	71.100	79.200	67.700	0.953
89.600	71.100	81.300	67.700	0.953
91.600	71.100	83.700	67.700	0.953
93.600	71.100	86.600	67.800	0.953
95.300	71.100	88.800	67.800	0.953
96.700	71.100	90.400	67.800	0.953
97.700	71.100	91.900	67.800	0.953
98.700	71.100	93.300	67.800	0.953
99.900	71.200	94.900	67.800	0.953
101.000	71.200	96.400	67.800	0.953
101.800	71.200	97.400	67.800	0.953
102.500	71.200	98.300	67.800	0.953
103.000	71.200	99.500	67.800	0.953
103.400	71.200	100.300	67.800	0.953
103.300	71.200	100.700	67.800	0.953
102.900	71.200	101.100	67.900	0.953
101.900	71.200	101.200	67.900	0.953
100.800	71.200	101.000	67.900	0.953
99.000	71.200	100.200	67.900	0.954
96.700	71.200	99.000	67.900	0.954
93.700	71.100	97.400	67.900	0.954
90.600	71.100	95.200	67.900	0.954
88.800	71.100	92.500	67.800	0.954
86.800	71.100	89.400	67.800	0.954
84.800	71.100	85.500	67.800	0.954
83.300	71.100	82.700	67.800	0.954
82.600	71.100	80.600	67.800	0.954
81.700	71.100	79.400	67.800	0.954
80.700	71.100	79.400	67.800	0.954
80.000	71.100	79.100	67.800	0.954
79.300	71.100	78.400	67.800	0.954
78.200	71.100	77.300	67.800	0.954
77.200	71.100	76.000	67.800	0.954
76.300	71.100	74.600	67.800	0.954
75.200	71.100	73.300	67.800	0.954
74.100	71.100	71.800	67.800	0.954
73.100	71.100	70.100	67.800	0.954
72.100	71.100	68.700	67.800	0.954
71.100	71.100	67.600	67.800	0.954
70.200	71.000	66.600	67.800	0.954
69.400	71.000	65.900	67.800	0.954
68.500	71.000	65.400	67.800	0.954
67.800	71.000	64.800	67.800	0.954
67.000	71.000	64.200	67.800	0.955
66.200	71.000	63.500	67.800	0.955
65.600	71.000	62.900	67.800	0.955
65.000	71.000	62.300	67.800	0.955
64.400	71.000	61.700	67.800	0.955
63.900	71.000	60.800	67.800	0.955
63.300	71.000	60.400	67.800	0.955
62.800	71.000	60.000	67.800	0.955
62.300	71.000	59.400	67.800	0.955
61.800	71.000	59.000	67.800	0.955
61.400	71.000	58.600	67.800	0.955
60.900	71.000	57.900	67.800	0.955
60.400	71.000	57.500	67.800	0.955
60.000	71.000	57.200	67.800	0.955
59.500	71.000	57.200	67.900	0.955
59.100	71.000	56.600	67.900	0.955
58.700	71.000	55.900	67.900	0.955
58.400	71.000	55.500	67.900	0.955
58.000	71.000	55.300	67.900	0.955
57.500	71.000	54.900	67.900	0.956
57.100	71.000	54.300	67.900	0.956
56.800	71.000	54.100	67.900	0.956
56.600	71.000	53.900	67.900	0.956
56.100	71.000	53.400	67.900	0.956
55.800	71.000	53.200	67.900	0.956
55.500	71.000	52.900	67.900	0.956
55.300	71.000	52.500	67.900	0.956
55.100	71.000	52.100	67.900	0.956
55.000	71.000	52.000	67.900	0.956
54.900	71.000	52.100	67.900	0.956
54.900	71.000	51.900	67.900	0.956
54.900	71.000	51.900	67.900	0.956
54.800	71.000	52.100	67.900	0.956
54.700	71.000	52.300	67.900	0.956
54.300	71.000	52.200	67.900	0.956
53.900	71.000	51.900	67.900	0.956
53.500	71.000	51.500	67.900	0.956
52.900	71.000	51.500	67.900	0.956
52.500	71.000	51.200	67.900	0.956
52.000	71.000	50.900	67.900	0.956
51.600	71.000	50.400	67.900	0.956
51.300	71.000	49.600	67.900	0.956
50.700	71.000	49.200	67.900	0.956
50.300	71.000	49.000	67.900	0.956
50.100	71.000	48.800	67.900	0.956
50.300	71.000	48.800	67.900	0.956
50.400	71.000	49.000	67.900	0.956
51.000	71.000	49.200	67.900	0.956
53.000	71.000	49.500	67.900	0.956
57.100	71.100	50.000	68.000	0.956
61.200	71.100	50.300	68.000	0.956
64.400	71.100	51.900	68.000	0.955
67.900	71.200	55.500	68.000	0.955
71.900	71.200	60.000	68.000	0.955
76.800	71.300	65.000	68.100	0.955
81.900	71.300	71.600	68.100	0.955
84.800	71.400	77.100	68.200	0.955
87.600	71.400	80.000	68.200	0.955
90.700	71.400	82.500	68.200	0.956
93.000	71.500	85.100	68.300	0.956
94.900	71.500	87.700	68.300	0.956
96.200	71.500	90.100	68.300	0.956
97.600	71.500	91.900	68.400	0.956
99.100	71.500	93.400	68.400	0.956
100.400	71.600	94.600	68.400	0.956
101.600	71.600	96.100	68.400	0.956
102.500	71.600	97.500	68.400	0.956
103.300	71.600	98.600	68.400	0.956
104.000	71.600	100.100	68.500	0.956
104.500	71.600	101.100	68.500	0.956
104.600	71.600	101.700	68.500	0.956
104.400	71.600	102.300	68.500	0.956
104.100	71.700	102.700	68.500	0.956
103.300	71.700	102.600	68.500	0.956
102.000	71.600	102.400	68.500	0.957
100.200	71.600	101.900	68.500	0.957
98.000	71.600	100.700	68.500	0.957
95.200	71.600	99.100	68.500	0.957
92.300	71.600	97.200	68.500	0.957
90.500	71.600	94.300	68.500	0.957
88.600	71.600	91.200	68.500	0.957
86.600	71.500	87.800	68.500	0.957
85.300	71.500	84.900	68.500	0.957
84.500	71.500	82.800	68.400	0.957
83.600	71.500	81.700	68.400	0.957
82.600	71.500	81.300	68.400	0.957
81.800	71.500	81.000	68.400	0.957
81.000	71.500	80.600	68.400	0.957
80.200	71.500	79.700	68.400	0.957
79.000	71.500	78.300	68.400	0.957
78.000	71.500	76.600	68.400	0.957
76.900	71.500	75.000	68.400	0.957
75.900	71.500	74.200	68.400	0.957
74.800	71.500	73.100	68.400	0.957
73.800	71.500	72.100	68.400	0.957
72.900	71.500	71.100	68.400	0.957
72.000	71.500	70.000	68.400	0.957
71.100	71.500	68.800	68.400	0.957
70.300	71.500	67.500	68.400	0.957
69.500	71.500	66.800	68.400	0.957
68.800	71.500	66.300	68.400	0.957
68.100	71.500	65.700	68.400	0.957
67.500	71.500	65.000	68.400	0.957
66.800	71.400	64.500	68.400	0.957
66.100	71.400	63.900	68.400	0.957
65.500	71.400	63.100	68.400	0.958
64.800	71.400	62.500	68.400	0.958
64.300	71.400	62.100	68.400	0.958
63.700	71.400	61.500	68.400	0.958
63.200	71.400	60.900	68.400	0.958
62.700	71.400	60.300	68.400	0.958
62.100	71.400	59.900	68.400	0.958
61.700	71.400	59.600	68.400	0.958
61.300	71.400	59.100	68.400	0.958
60.800	71.400	58.600	68.400	0.958
60.300	71.400	58.200	68.400	0.958
59.900	71.400	57.900	68.400	0.958
59.500	71.400	57.500	68.400	0.958
59.100	71.400	57.000	68.400	0.958
58.600	71.400	56.700	68.400	0.958
58.200	71.400	56.200	68.400	0.958
57.900	71.400	55.900	68.400	0.958
57.500	71.400	55.400	68.400	0.958
57.000	71.400	54.800	68.400	0.958
56.600	71.400	54.500	68.400	0.958
56.300	71.400	54.100	68.400	0.958
55.900	71.400	53.900	68.400	0.958
55.500	71.400	53.300	68.400	0.958
55.200	71.400	52.700	68.400	0.958
55.100	71.400	52.600	68.400	0.958
54.900	71.400	52.700	68.500	0.958
54.700	71.400	52.400	68.500	0.958
54.700	71.400	52.000	68.500	0.958
54.500	71.400	52.000	68.500	0.959
54.400	71.400	52.200	68.500	0.959
54.200	71.400	52.400	68.500	0.959
53.800	71.400	52.200	68.500	0.959
53.800	71.400	52.100	68.500	0.959
53.500	71.400	52.000	68.500	0.959
52.700	71.400	51.700	68.500	0.959
52.300	71.400	51.100	68.500	0.959
51.800	71.400	50.900	68.500	0.959
51.500	71.400	50.500	68.500	0.959
50.800	71.400	49.800	68.500	0.959
50.200	71.400	49.100	68.500	0.959
49.900	71.400	48.800	68.500	0.959
49.500	71.400	48.600	68.500	0.959
49.200	71.400	48.200	68.500	0.959
49.600	71.400	47.900	68.500	0.959
50.100	71.400	47.900	68.500	0.959
51.900	71.400	48.500	68.500	0.959
55.500	71.400	48.800	68.500	0.959
59.700	71.500	49.400	68.500	0.958
63.200	71.500	50.600	68.500	0.958
66.800	71.600	53.800	68.500	0.958
70.400	71.600	58.100	68.500	0.957
75.800	71.600	62.600	68.600	0.957
80.700	71.700	68.500	68.600	0.957
84.200	71.700	74.900	68.700	0.958
87.300	71.800	79.300	68.700	0.958
90.500	71.800	82.000	68.800	0.958
93.100	71.800	84.300	68.800	0.958
95.100	71.900	87.100	68.800	0.958
96.900	71.900	89.800	68.900	0.958
98.700	71.900	91.800	68.900	0.958
100.400	71.900	93.900	68.900	0.958
101.700	72.000	95.600	68.900	0.958
102.800	72.000	97.100	69.000	0.958
104.000	72.000	98.600	69.000	0.958
105.100	72.000	100.300	69.000	0.958
106.000	72.000	101.600	69.000	0.958
106.500	72.100	102.600	69.000	0.958
107.000	72.100	103.500	69.100	0.958
107.100	72.100	104.100	69.100	0.958
106.900	72.100	104.600	69.100	0.958
106.300	72.100	104.900	69.100	0.959
105.600	72.100	104.900	69.100	0.959
104.200	72.100	104.600	69.100	0.959
102.200	72.100	104.100	69.100	0.959
99.800	72.100	103.000	69.100	0.959
96.900	72.000	101.400	69.100	0.959
93.900	72.000	99.300	69.100	0.959
93.900	72.000	96.500	69.100	0.959
91.700	72.000	92.900	69.100	0.959
89.500	72.000	89.400	69.100	0.959
87.700	72.000	86.500	69.000	0.959
86.300	72.000	84.200	69.000	0.959
85.300	72.000	82.900	69.000	0.959
84.200	72.000	82.200	69.000	0.959
83.300	72.000	81.700	69.000	0.959
82.400	72.000	81.000	69.000	0.959
81.500	72.000	79.900	69.000	0.959
80.500	72.000	78.700	69.000	0.959
79.400	72.000	77.400	69.000	0.959
78.400	72.000	76.100	69.000	0.959
77.400	72.000	74.700	69.000	0.958
76.300	72.000	73.300	69.000	0.958
75.300	72.000	72.100	69.000	0.958
74.400	72.000	70.900	69.000	0.958
73.500	71.900	70.100	69.000	0.958
72.500	71.900	69.500	68.900	0.958
71.600	71.900	68.800	68.900	0.958
70.800	71.900	67.900	68.900	0.958
70.000	71.900	67.100	68.900	0.958
69.200	71.900	66.300	68.900	0.958
68.400	71.900	65.600	68.900	0.958
67.700	71.900	65.100	68.900	0.958
67.000	71.900	64.300	68.900	0.958
66.300	71.900	63.500	68.900	0.958
65.600	71.900	62.800	68.900	0.958
65.000	71.900	62.000	68.900	0.958
64.500	71.900	61.600	68.900	0.958
63.900	71.900	61.200	68.900	0.958
63.300	71.900	60.800	68.900	0.958
62.800	71.900	60.400	68.900	0.958
62.400	71.900	59.700	68.900	0.958
61.800	71.900	59.100	68.900	0.958
61.300	71.900	58.700	68.900	0.958
60.900	71.900	58.200	68.900	0.958
60.400	71.900	57.700	68.900	0.958
59.800	71.900	57.100	68.900	0.958
59.400	71.900	57.000	68.900	0.958
59.000	71.900	56.400	68.900	0.958
58.600	71.900	55.900	68.900	0.958
58.200	71.900	55.700	68.900	0.958
57.700	71.900	55.200	68.900	0.958
57.400	71.900	54.900	68.900	0.958
57.000	71.900	54.700	68.900	0.958
56.700	71.900	54.300	68.900	0.959
56.300	71.900	53.700	68.900	0.959
56.000	71.900	53.300	68.900	0.959
56.000	71.900	53.200	68.900	0.959
55.800	71.900	53.200	68.900	0.959
55.500	71.900	53.300	68.900	0.959
55.400	71.900	53.200	68.900	0.959
55.300	71.900	53.200	69.000	0.959
55.100	71.900	52.900	69.000	0.959
54.800	71.900	52.800	69.000	0.959
54.400	71.900	52.800	69.000	0.959
54.100	71.900	52.400	69.000	0.959
53.600	71.900	52.200	69.000	0.959
53.000	71.900	51.900	69.000	0.959
52.500	71.900	51.300	69.000	0.959
52.100	71.900	50.500	69.000	0.959
51.600	71.900	49.900	69.000	0.959
51.000	71.900	49.300	69.000	0.959
50.500	71.900	48.900	69.000	0.959
50.000	71.900	48.800	69.000	0.959
49.700	71.900	48.700	69.000	0.959
49.900	71.900	48.500	69.000	0.959
50.000	71.900	48.600	69.000	0.959
50.800	71.900	49.100	69.000	0.959
53.400	71.900	49.500	69.000	0.959
57.600	72.000	49.700	69.000	0.958
61.400	72.000	51.400	69.000	0.958
64.900	72.000	55.100	69.000	0.958
68.800	72.100	59.800	69.000	0.958
73.500	72.100	65.200	69.100	0.958
77.600	72.100	71.400	69.200	0.960
81.600	72.100	77.100	69.200	0.960
85.200	72.100	80.300	69.200	0.960
88.200	72.100	82.700	69.200	0.960
90.700	72.100	85.100	69.200	0.960
92.700	72.100	87.700	69.200	0.960
94.500	72.100	89.700	69.200	0.960
96.100	72.100	91.200	69.200	0.961
97.500	72.100	92.400	69.200	0.961
99.100	72.100	93.800	69.200	0.961
100.200	72.100	95.600	69.200	0.961
101.500	72.100	97.100	69.200	0.961
102.700	72.100	98.800	69.200	0.961
103.500	72.100	100.300	69.200	0.961
104.100	72.100	101.100	69.200	0.961
104.500	72.100	101.900	69.200	0.961
104.700	72.100	102.300	69.300	0.961
104.600	72.100	102.500	69.300	0.961
104.200	72.100	102.500	69.300	0.961
103.200	72.100	102.300	69.300	0.961
101.900	72.100	101.900	69.300	0.961
100.000	72.100	100.700	69.300	0.961
97.500	72.100	99.300	69.300	0.960
94.600	72.200	97.100	69.300	0.960
91.600	72.200	94.400	69.300	0.960
89.600	72.200	91.200	69.300	0.960
87.600	72.200	87.500	69.300	0.960
85.600	72.200	84.600	69.300	0.960
84.400	72.200	82.200	69.300	0.960
83.400	72.200	80.900	69.300	0.960
82.500	72.200	80.300	69.300	0.960
81.500	72.200	79.800	69.300	0.960
80.700	72.200	79.200	69.300	0.960
79.900	72.200	78.400	69.300	0.960
79.000	72.200	77.200	69.300	0.960
77.900	72.200	75.800	69.300	0.960
76.800	72.200	74.600	69.300	0.960
75.800	72.200	73.300	69.400	0.960
74.700	72.200	71.600	69.400	0.960
73.600	72.300	70.300	69.400	0.960
72.600	72.300	69.000	69.400	0.960
71.700	72.300	68.200	69.400	0.960
70.800	72.300	67.500	69.400	0.960
69.900	72.300	67.100	69.400	0.960
69.100	72.300	66.500	69.400	0.960
68.400	72.300	65.700	69.400	0.960
67.600	72.300	65.100	69.400	0.960
66.800	72.300	64.500	69.400	0.960
66.100	72.300	63.600	69.400	0.960
65.500	72.300	63.000	69.400	0.960
64.900	72.300	62.300	69.400	0.960
64.300	72.300	61.700	69.400	0.960
63.700	72.300	61.200	69.400	0.960
63.200	72.300	60.600	69.400	0.960
62.600	72.300	60.100	69.400	0.960
62.200	72.300	59.900	69.400	0.960
61.700	72.300	59.300	69.400	0.960
61.200	72.300	58.700	69.400	0.960
60.700	72.300	58.300	69.500	0.960
60.300	72.300	57.700	69.500	0.960
59.800	72.300	57.300	69.500	0.960
59.400	72.300	56.800	69.500	0.960
59.000	72.300	56.400	69.500	0.960
58.700	72.300	56.100	69.500	0.960
58.200	72.300	55.600	69.500	0.960
57.800	72.300	54.900	69.500	0.960
57.500	72.300	54.700	69.500	0.960
57.100	72.300	54.600	69.500	0.960
56.700	72.300	54.300	69.500	0.960
56.300	72.300	53.900	69.500	0.960
56.000	72.300	53.500	69.500	0.960
55.800	72.300	53.200	69.500	0.960
55.600	72.300	52.900	69.500	0.960
55.400	72.300	52.900	69.500	0.960
55.400	72.400	52.900	69.500	0.960
55.300	72.400	52.800	69.500	0.960
55.300	72.400	52.900	69.500	0.960
55.200	72.400	53.100	69.500	0.961
55.100	72.400	53.200	69.500	0.961
54.800	72.400	53.100	69.500	0.961
54.500	72.400	52.800	69.500	0.961
54.000	72.400	52.400	69.500	0.961
53.400	72.400	52.100	69.500	0.961
53.000	72.400	51.700	69.500	0.961
52.500	72.400	51.300	69.500	0.961
52.000	72.400	50.700	69.500	0.961
51.600	72.400	50.200	69.500	0.961
51.300	72.400	49.800	69.500	0.961
50.800	72.400	49.400	69.500	0.961
50.500	72.400	49.300	69.500	0.961
50.500	72.400	49.300	69.500	0.961
50.800	72.400	49.400	69.500	0.961
51.000	72.400	49.800	69.500	0.961
52.500	72.400	50.100	69.500	0.961
56.200	72.400	50.700	69.500	0.961
60.400	72.400	51.100	69.500	0.961
63.800	72.400	53.600	69.500	0.961
67.200	72.400	57.700	69.500	0.961
71.400	72.400	62.800	69.600	0.961
75.300	72.400	68.600	69.600	0.961
81.300	72.200	75.000	69.500	0.962
84.900	72.200	79.600	69.500	0.962
87.800	72.200	81.900	69.400	0.962
90.500	72.100	84.400	69.400	0.962
92.900	72.100	87.300	69.400	0.962
94.800	72.100	90.100	69.400	0.962
96.400	72.100	92.100	69.400	0.962
97.900	72.100	93.100	69.400	0.963
99.200	72.100	94.500	69.400	0.963
100.900	72.100	96.100	69.400	0.963
102.000	72.100	97.500	69.300	0.962
102.800	72.000	99.000	69.300	0.962
103.800	72.000	100.400	69.300	0.962
104.600	72.000	101.500	69.300	0.962
105.200	72.000	102.500	69.300	0.962
105.500	72.100	103.200	69.300	0.962
105.500	72.100	103.400	69.300	0.962
105.100	72.100	103.700	69.300	0.962
104.400	72.100	103.700	69.400	0.962
103.300	72.100	103.400	69.400	0.962
101.700	72.200	102.700	69.400	0.962
99.500	72.200	101.300	69.400	0.961
96.700	72.200	99.400	69.400	0.962
93.500	72.200	97.200	69.500	0.962
91.200	72.300	93.900	69.500	0.962
89.400	72.300	90.200	69.500	0.962
87.400	72.300	86.700	69.500	0.962
85.900	72.300	84.200	69.600	0.962
85.000	72.300	82.900	69.600	0.962
84.200	72.300	82.100	69.600	0.962
83.300	72.300	81.800	69.600	0.962
82.600	72.300	81.700	69.600	0.962
81.700	72.400	81.000	69.600	0.962
80.900	72.400	80.100	69.600	0.962
79.900	72.400	78.700	69.600	0.962
78.900	72.400	77.200	69.600	0.962
77.800	72.400	75.700	69.700	0.962
76.600	72.400	74.700	69.700	0.962
75.700	72.400	73.700	69.700	0.962
74.500	72.400	72.700	69.700	0.962
73.600	72.500	71.600	69.700	0.962
72.600	72.500	70.300	69.700	0.962
71.900	72.500	69.200	69.700	0.962
71.100	72.500	68.500	69.700	0.962
70.300	72.500	67.800	69.700	0.962
69.600	72.500	67.100	69.800	0.962
68.800	72.500	66.500	69.800	0.962
68.200	72.500	65.800	69.800	0.962
67.500	72.500	65.000	69.800	0.962
66.800	72.500	64.400	69.800	0.962
66.200	72.600	63.800	69.800	0.962
65.500	72.600	63.500	69.800	0.962
65.000	72.600	62.800	69.800	0.962
64.300	72.600	62.200	69.800	0.962
63.800	72.600	61.500	69.800	0.962
63.300	72.600	61.200	69.800	0.962
62.800	72.600	60.900	69.800	0.962
62.400	72.600	60.500	69.800	0.962
61.800	72.600	59.900	69.900	0.962
61.300	72.600	59.400	69.900	0.962
61.000	72.600	58.900	69.900	0.962
60.500	72.600	58.600	69.900	0.962
60.300	72.600	58.400	69.900	0.962
59.800	72.600	57.900	69.900	0.962
59.400	72.600	57.300	69.900	0.962
59.000	72.700	56.900	69.900	0.962
58.500	72.700	56.400	69.900	0.962
58.100	72.700	56.100	69.900	0.962
57.700	72.700	56.100	69.900	0.962
57.300	72.700	55.700	69.900	0.962
57.000	72.700	55.000	69.900	0.962
56.700	72.700	54.600	69.900	0.962
56.400	72.700	54.300	69.900	0.962
56.100	72.700	54.200	70.000	0.962
56.100	72.700	54.200	70.000	0.962
55.800	72.700	54.100	70.000	0.962
55.900	72.700	53.900	70.000	0.962
55.700	72.700	53.900	70.000	0.962
55.300	72.700	54.000	70.000	0.962
55.300	72.700	53.800	70.000	0.962
55.000	72.700	53.600	70.000	0.962
54.600	72.700	53.500	70.000	0.962
54.200	72.700	53.200	70.000	0.962
53.700	72.800	52.900	70.000	0.962
53.200	72.800	52.400	70.000	0.962
52.700	72.800	51.500	70.000	0.962
52.200	72.800	51.100	70.000	0.962
51.800	72.800	50.400	70.000	0.962
51.200	72.800	49.900	70.000	0.962
50.700	72.800	49.700	70.100	0.962
50.300	72.800	49.800	70.100	0.962
50.500	72.800	49.600	70.100	0.963
50.800	72.800	49.500	70.100	0.963
51.700	72.800	49.700	70.100	0.963
54.500	72.800	50.400	70.100	0.963
58.700	72.700	51.000	70.100	0.963
62.600	72.700	52.200	70.100	0.963
66.000	72.700	55.400	70.100	0.963
69.900	72.700	59.900	70.000	0.964
74.100	72.700	65.400	70.000	0.964
79.600	72.700	71.900	70.000	0.964
84.000	72.800	78.000	70.100	0.963
87.300	72.800	81.700	70.100	0.963
90.200	72.800	84.100	70.100	0.963
93.400	72.800	86.600	70.200	0.964
95.700	72.800	89.400	70.200	0.964
97.200	72.900	92.000	70.200	0.964
98.800	72.900	94.200	70.200	0.964
100.400	72.900	95.700	70.300	0.964
102.200	72.900	97.200	70.300	0.964
103.600	72.900	98.800	70.300	0.964
104.700	72.900	100.600	70.300	0.964
105.900	72.900	102.400	70.300	0.964
106.900	72.900	103.500	70.300	0.965
107.900	72.900	104.300	70.400	0.965
108.400	72.900	105.300	70.400	0.965
108.700	73.000	106.200	70.400	0.965
108.800	73.000	106.900	70.400	0.965
108.300	73.000	107.300	70.400	0.965
107.500	73.000	107.200	70.400	0.965
106.200	73.000	106.600	70.400	0.965
104.500	73.000	105.600	70.400	0.965
102.100	73.000	104.200	70.400	0.965
99.200	72.900	102.000	70.400	0.965
95.800	72.900	99.500	70.400	0.965
93.500	72.900	96.500	70.400	0.965
91.400	72.900	92.800	70.400	0.965
89.300	72.900	89.200	70.300	0.965
87.600	72.900	86.800	70.300	0.965
86.500	72.900	85.000	70.300	0.965
85.600	72.900	83.700	70.300	0.965
84.800	72.900	83.300	70.300	0.965
83.900	72.900	82.900	70.300	0.965
82.900	72.900	82.100	70.300	0.965
81.900	72.800	81.100	70.300	0.965
80.900	72.800	79.900	70.300	0.965
80.000	72.800	78.500	70.300	0.965
78.900	72.800	77.200	70.300	0.965
77.800	72.800	75.700	70.300	0.965
76.600	72.800	74.400	70.300	0.965
75.600	72.800	73.200	70.300	0.965
74.600	72.800	72.000	70.300	0.965
73.700	72.800	71.300	70.300	0.965
72.800	72.800	70.800	70.200	0.965
71.900	72.800	69.900	70.200	0.965
71.100	72.800	69.000	70.200	0.965
70.200	72.800	68.400	70.200	0.965
69.600	72.800	67.600	70.200	0.965
68.800	72.800	66.900	70.200	0.965
68.200	72.800	66.200	70.200	0.965
67.400	72.800	65.300	70.200	0.965
66.700	72.800	64.500	70.200	0.965
66.100	72.800	63.800	70.200	0.965
65.500	72.800	63.200	70.200	0.965
65.000	72.800	62.800	70.200	0.965
64.400	72.800	62.300	70.200	0.965
63.800	72.800	61.900	70.200	0.965
63.300	72.800	61.300	70.200	0.966
62.800	72.700	60.800	70.200	0.966
62.300	72.700	60.200	70.200	0.966
61.900	72.700	59.800	70.200	0.966
61.400	72.700	59.500	70.200	0.966
60.800	72.700	59.100	70.200	0.966
60.600	72.700	58.700	70.200	0.966
60.200	72.700	58.200	70.200	0.966
59.800	72.700	57.800	70.200	0.966
59.200	72.700	57.300	70.200	0.966
58.900	72.700	56.900	70.300	0.966
58.500	72.700	56.400	70.300	0.966
58.100	72.700	55.900	70.300	0.966
57.700	72.700	55.700	70.300	0.966
57.300	72.700	55.400	70.300	0.966
57.000	72.700	55.100	70.300	0.966
56.800	72.700	54.800	70.300	0.966
56.500	72.700	54.400	70.300	0.966
56.600	72.700	54.300	70.300	0.966
56.300	72.700	54.200	70.300	0.966
56.100	72.700	54.100	70.300	0.966
55.900	72.700	54.200	70.300	0.966
55.700	72.700	54.300	70.300	0.966
55.500	72.700	54.200	70.300	0.966
55.200	72.700	54.000	70.300	0.966
54.900	72.700	53.700	70.300	0.966
54.500	72.700	53.600	70.300	0.966
53.900	72.700	53.300	70.300	0.966
53.300	72.700	52.700	70.300	0.966
53.100	72.700	52.100	70.300	0.966
52.600	72.700	51.500	70.300	0.966
51.900	72.700	50.900	70.300	0.966
51.400	72.700	50.400	70.300	0.966
51.200	72.700	50.200	70.300	0.966
50.700	72.700	50.100	70.300	0.966
50.800	72.700	49.900	70.300	0.966
51.000	72.800	49.800	70.300	0.966
51.800	72.800	50.200	70.300	0.966
54.200	72.800	50.600	70.300	0.966
58.400	72.800	51.000	70.300	0.966
62.400	72.800	51.900	70.300	0.966
65.900	72.900	55.100	70.400	0.966
69.800	72.900	59.600	70.400	0.966
74.100	72.900	64.700	70.400	0.966
79.000	72.900	70.800	70.500	0.966
83.500	73.000	77.400	70.500	0.966
86.900	73.000	81.500	70.500	0.966
89.400	73.000	83.600	70.500	0.966
92.100	73.100	85.700	70.600	0.966
94.500	73.100	88.600	70.600	0.966
96.300	73.100	90.900	70.600	0.966
98.000	73.100	92.800	70.600	0.966
99.500	73.100	94.500	70.600	0.966
101.300	73.200	96.200	70.700	0.966
102.700	73.200	97.800	70.700	0.966
103.800	73.200	99.600	70.700	0.966
104.900	73.200	101.100	70.700	0.966
106.100	73.200	102.400	70.700	0.966
107.000	73.200	103.400	70.700	0.966
107.400	73.200	104.300	70.800	0.966
107.700	73.300	105.200	70.800	0.966
107.700	73.300	105.800	70.800	0.966
107.200	73.300	106.100	70.800	0.966
106.300	73.300	105.900	70.800	0.966
105.000	73.300	105.500	70.800	0.966
103.200	73.300	104.600	70.800	0.966
100.700	73.300	103.200	70.800	0.967
97.800	73.300	101.200	70.800	0.967
94.500	73.300	98.600	70.800	0.967
92.200	73.300	95.500	70.800	0.967
90.300	73.200	92.000	70.800	0.967
88.100	73.200	88.200	70.800	0.967
86.600	73.200	85.400	70.800	0.967
85.700	73.200	83.700	70.800	0.967
84.800	73.200	82.700	70.800	0.967
83.800	73.200	82.700	70.800	0.967
83.000	73.200	82.400	70.800	0.967
82.100	73.200	81.500	70.800	0.967
81.100	73.200	80.200	70.800	0.967
79.900	73.200	78.900	70.800	0.967
78.900	73.200	77.800	70.800	0.967
77.800	73.200	76.300	70.800	0.967
76.800	73.200	74.700	70.800	0.967
75.700	73.200	73.400	70.800	0.967
74.600	73.200	72.500	70.800	0.967
73.700	73.200	71.500	70.800	0.967
72.800	73.200	70.600	70.800	0.967
71.900	73.200	69.700	70.800	0.967
71.000	73.200	69.100	70.800	0.967
70.300	73.200	68.400	70.800	0.967
69.500	73.300	67.500	70.900	0.967
68.800	73.300	66.800	70.900	0.967
68.100	73.300	66.200	70.900	0.967
67.400	73.300	65.400	70.900	0.967
66.600	73.300	64.600	70.900	0.967
65.900	73.300	64.000	70.900	0.967
65.300	73.300	63.300	70.900	0.967
64.700	73.300	62.800	70.900	0.967
64.200	73.300	62.200	70.900	0.967
63.600	73.300	61.700	70.900	0.968
63.000	73.300	61.000	70.900	0.968
62.500	73.300	60.400	70.900	0.968
62.100	73.300	60.000	70.900	0.968
61.600	73.300	59.400	70.900	0.968
61.200	73.300	59.000	70.900	0.968
60.700	73.300	58.700	70.900	0.968
60.300	73.300	58.300	70.900	0.968
59.700	73.300	57.800	70.900	0.968
59.300	73.300	57.200	70.900	0.968
58.900	73.300	56.700	70.900	0.968
58.500	73.300	56.500	70.900	0.968
58.000	73.300	56.200	70.900	0.968
57.700	73.300	55.700	70.900	0.968
57.300	73.300	55.300	70.900	0.968
57.000	73.300	55.100	70.900	0.968
56.700	73.300	54.600	70.900	0.968
56.300	73.300	54.500	70.900	0.968
56.100	73.300	54.200	70.900	0.968
56.000	73.300	53.900	70.900	0.968
55.900	73.300	53.600	70.900	0.968
55.600	73.300	53.700	70.900	0.968
55.600	73.300	53.700	70.900	0.968
55.400	73.300	53.800	70.900	0.968
55.100	73.300	53.700	71.000	0.968
55.000	73.300	53.200	71.000	0.968
54.500	73.300	53.000	70.900	0.968
54.100	73.300	52.900	71.000	0.968
53.500	73.300	52.600	71.000	0.968
53.000	73.300	52.300	71.000	0.968
52.400	73.300	51.700	71.000	0.968
51.900	73.300	50.900	71.000	0.968
51.500	73.300	50.200	70.900	0.968
51.000	73.300	49.700	70.900	0.968
50.500	73.300	49.300	70.900	0.968
50.100	73.300	49.300	70.900	0.968
50.200	73.300	49.300	70.900	0.968
50.500	73.300	49.100	70.900	0.968
50.800	73.300	49.400	70.900	0.968
52.400	73.300	49.800	70.900	0.968
56.300	73.300	50.100	70.900	0.968
60.500	73.300	50.500	70.900	0.968
63.800	73.300	52.500	70.900	0.968
67.300	73.300	56.600	71.000	0.968
71.700	73.300	61.600	71.000	0.968
75.700	73.400	67.300	71.000	0.968
81.400	73.300	73.600	70.900	0.968
84.800	73.200	78.800	70.900	0.968
87.700	73.200	81.700	70.900	0.968
90.600	73.200	83.800	70.900	0.968
92.800	73.200	86.100	70.800	0.968
94.500	73.200	88.900	70.800	0.968
96.000	73.200	91.400	70.800	0.968
97.700	73.200	92.900	70.800	0.968
99.300	73.200	94.000	70.800	0.968
100.500	73.100	95.400	70.800	0.968
101.800	73.100	97.200	70.800	0.968
102.800	73.100	98.700	70.800	0.968
103.800	73.100	100.100	70.800	0.968
104.600	73.100	101.400	70.800	0.968
105.200	73.100	102.600	70.800	0.968
105.600	73.100	103.200	70.700	0.967
105.600	73.100	103.400	70.700	0.967
105.400	73.100	103.500	70.700	0.967
104.500	73.100	103.700	70.800	0.967
103.300	73.200	103.600	70.800	0.967
101.600	73.200	102.900	70.800	0.967
99.200	73.200	101.800	70.800	0.967
96.300	73.200	99.900	70.800	0.967
93.100	73.200	97.500	70.800	0.967
91.100	73.200	94.500	70.900	0.967
89.200	73.200	90.800	70.900	0.968
87.100	73.300	87.200	70.900	0.968
85.600	73.300	84.600	70.900	0.968
84.800	73.300	82.800	70.900	0.968
84.100	73.300	82.200	70.900	0.968
83.300	73.300	82.000	70.900	0.968
82.400	73.300	81.700	70.900	0.968
81.500	73.300	81.000	70.900	0.968
80.600	73.300	80.000	70.900	0.968
79.500	73.300	78.600	70.900	0.968
78.500	73.300	77.100	70.900	0.968
77.600	73.300	76.200	71.000	0.968
76.500	73.300	75.000	71.000	0.968
75.400	73.300	73.600	71.000	0.968
74.400	73.300	72.600	71.000	0.968
73.300	73.300	71.300	71.000	0.968
72.500	73.300	70.200	71.000	0.968
71.700	73.300	69.400	71.000	0.968
71.000	73.300	68.900	71.000	0.968
70.300	73.400	68.200	71.000	0.968
69.500	73.400	67.500	71.000	0.968
68.700	73.400	66.700	71.000	0.968
68.100	73.400	66.200	71.000	0.968
67.400	73.400	65.700	71.000	0.968
66.800	73.400	64.900	71.000	0.968
66.200	73.400	64.100	71.000	0.968
65.500	73.400	63.200	71.000	0.968
64.900	73.400	62.900	71.100	0.968
64.400	73.400	62.700	71.100	0.968
63.800	73.400	62.100	71.100	0.968
63.300	73.400	61.400	71.100	0.968
62.900	73.400	61.100	71.100	0.968
62.400	73.400	60.700	71.100	0.968
62.000	73.400	60.200	71.100	0.968
61.500	73.400	59.800	71.100	0.968
61.200	73.400	59.400	71.100	0.968
60.800	73.400	58.800	71.100	0.968
60.300	73.400	58.400	71.100	0.968
59.900	73.400	58.000	71.100	0.968
59.500	73.400	57.700	71.100	0.968
59.100	73.400	57.400	71.100	0.968
58.800	73.400	57.000	71.100	0.968
58.300	73.400	56.700	71.100	0.968
57.900	73.400	56.200	71.100	0.968
57.500	73.400	55.800	71.100	0.968
57.300	73.400	55.600	71.100	0.968
57.000	73.400	55.100	71.100	0.968
56.700	73.400	55.000	71.100	0.968
56.600	73.500	54.700	71.100	0.968
56.700	73.500	54.800	71.100	0.968
56.700	73.500	54.800	71.100	0.968
56.500	73.500	54.700	71.100	0.968
56.100	73.500	54.800	71.100	0.968
55.900	73.500	54.700	71.100	0.968
55.800	73.500	54.600	71.100	0.968
55.300	73.500	54.200	71.100	0.968
54.700	73.500	53.900	71.200	0.968
54.400	73.500	53.700	71.200	0.968
53.900	73.500	53.300	71.200	0.968
53.400	73.500	52.600	71.200	0.968
52.800	73.500	51.700	71.200	0.968
52.300	73.500	51.200	71.200	0.968
51.900	73.500	50.900	71.200	0.968
51.400	73.500	50.700	71.200	0.968
50.900	73.500	50.500	71.200	0.968
51.200	73.500	50.400	71.200	0.968
51.400	73.500	50.500	71.200	0.969
52.200	73.500	50.600	71.200	0.969
54.900	73.500	51.200	71.200	0.969
59.200	73.500	51.500	71.200	0.969
62.900	73.500	52.000	71.200	0.969
66.300	73.500	54.700	71.200	0.969
70.400	73.400	59.100	71.100	0.969
75.000	73.400	64.100	71.100	0.969
79.000	73.400	70.300	71.100	0.968
84.200	73.400	76.800	71.100	0.968
87.600	73.400	81.500	71.100	0.968
90.600	73.400	83.900	71.100	0.968
93.200	73.400	85.700	71.000	0.968
95.400	73.400	88.400	71.000	0.968
97.200	73.400	91.500	71.000	0.968
98.600	73.400	94.000	71.000	0.968
100.200	73.300	95.600	71.000	0.968
101.700	73.300	96.800	71.000	0.968
103.200	73.300	98.300	71.000	0.968
104.400	73.300	99.800	71.000	0.968
105.500	73.300	101.200	71.000	0.968
106.500	73.300	102.700	71.000	0.968
107.200	73.300	103.600	71.000	0.968
107.700	73.300	104.300	71.000	0.968
107.900	73.300	105.300	71.000	0.968
107.800	73.300	106.200	71.000	0.968
107.300	73.300	106.500	71.000	0.968
106.500	73.300	106.600	71.000	0.968
105.100	73.300	105.900	71.000	0.968
103.200	73.300	105.000	71.000	0.968
100.700	73.300	103.600	71.000	0.968
97.600	73.300	101.800	71.000	0.968
94.400	73.300	99.500	71.000	0.968
92.500	73.300	96.200	71.000	0.968
90.600	73.300	92.500	71.000	0.968
88.500	73.300	88.800	71.000	0.968
87.200	73.300	86.300	71.000	0.968
86.500	73.300	84.700	71.000	0.968
85.500	73.300	83.900	71.000	0.968
84.500	73.400	83.400	71.000	0.968
83.700	73.400	83.200	71.000	0.968
82.700	73.400	82.400	71.000	0.968
81.600	73.400	81.000	71.000	0.968
80.500	73.400	79.800	71.000	0.968
79.500	73.400	78.400	71.000	0.968
78.400	73.400	77.100	71.000	0.968
77.200	73.400	75.900	71.000	0.968
76.100	73.400	74.700	71.100	0.968
75.300	73.400	73.400	71.100	0.969
74.200	73.400	72.300	71.100	0.969
73.300	73.400	71.300	71.100	0.969
72.400	73.400	70.500	71.100	0.969
71.600	73.400	70.000	71.100	0.969
70.800	73.400	69.400	71.100	0.969
70.100	73.400	68.600	71.100	0.969
69.400	73.400	67.800	71.100	0.969
68.700	73.400	67.000	71.100	0.969
67.900	73.400	66.300	71.100	0.969
67.300	73.400	65.500	71.100	0.969
66.700	73.400	64.900	71.100	0.969
66.100	73.400	64.200	71.100	0.969
65.500	73.400	63.400	71.100	0.969
64.800	73.400	62.900	71.100	0.969
64.300	73.400	62.400	71.100	0.969
63.800	73.400	62.100	71.100	0.969
63.400	73.400	61.500	71.100	0.969
62.900	73.400	61.100	71.100	0.969
62.300	73.400	60.700	71.100	0.969
61.800	73.400	60.200	71.100	0.969
61.300	73.400	59.800	71.100	0.969
60.900	73.400	59.100	71.100	0.969
60.500	73.400	58.500	71.100	0.969
60.100	73.400	58.100	71.100	0.969
59.700	73.400	57.700	71.100	0.969
59.300	73.400	57.400	71.100	0.969
58.800	73.400	57.000	71.100	0.969
58.500	73.400	56.800	71.100	0.969
58.100	73.400	56.400	71.100	0.969
57.700	73.400	56.000	71.100	0.969
57.300	73.400	55.700	71.100	0.969
57.000	73.400	55.300	71.100	0.969
56.700	73.400	54.800	71.100	0.969
56.500	73.400	54.500	71.100	0.969
56.500	73.400	54.500	71.100	0.969
56.400	73.400	54.600	71.100	0.969
56.200	73.400	54.400	71.100	0.969
56.000	73.400	54.300	71.100	0.969
55.800	73.400	54.600	71.100	0.969
55.700	73.400	54.500	71.100	0.969
55.300	73.400	54.200	71.100	0.969
54.900	73.400	54.100	71.100	0.969
54.500	73.400	53.600	71.100	0.969
53.900	73.400	53.000	71.100	0.969
53.500	73.400	52.700	71.200	0.969
53.000	73.400	52.400	71.200	0.969
52.600	73.400	51.500	71.200	0.969
52.000	73.400	50.900	71.200	0.969
51.400	73.400	50.500	71.200	0.969
50.900	73.400	50.300	71.200	0.969
50.600	73.400	50.100	71.200	0.969
50.800	73.400	49.800	71.200	0.969
51.000	73.400	49.900	71.200	0.969
51.800	73.400	50.000	71.200	0.969
54.400	73.400	50.500	71.200	0.969
58.700	73.400	51.000	71.200	0.969
62.500	73.400	51.600	71.100	0.969
66.000	73.400	54.100	71.100	0.969
70.200	73.400	58.200	71.100	0.969
74.700	73.400	63.100	71.100	0.969
78.800	73.300	69.200	71.000	0.969
83.900	73.400	76.000	71.100	0.968
87.300	73.500	81.100	71.100	0.968
90.100	73.500	83.700	71.100	0.968
92.400	73.500	85.600	71.200	0.968
95.000	73.500	88.400	71.200	0.968
97.000	73.500	90.900	71.200	0.968
98.500	73.500	92.900	71.200	0.968
100.200	73.600	94.700	71.200	0.968
102.200	73.600	96.500	71.200	0.968
103.800	73.600	98.200	71.200	0.968
104.900	73.600	99.600	71.200	0.968
105.800	73.600	101.500	71.300	0.968
106.800	73.600	103.400	71.300	0.968
107.700	73.600	104.500	71.300	0.968
108.100	73.600	105.200	71.300	0.968
108.300	73.600	106.100	71.300	0.968
108.200	73.600	106.500	71.300	0.968
107.700	73.600	106.600	71.300	0.969
106.800	73.600	106.600	71.300	0.969
105.500	73.600	106.200	71.300	0.969
103.800	73.600	105.500	71.300	0.969
101.400	73.600	104.200	71.300	0.969
98.500	73.600	102.600	71.300	0.969
95.600	73.600	100.500	71.300	0.969
93.500	73.600	97.500	71.300	0.969
91.200	73.500	93.900	71.300	0.969
89.100	73.500	90.400	71.300	0.969
87.800	73.500	87.900	71.200	0.969
86.900	73.500	85.700	71.200	0.969
85.800	73.500	84.600	71.200	0.969
84.700	73.500	84.200	71.200	0.969
83.900	73.500	83.600	71.200	0.969
83.000	73.500	82.700	71.200	0.969
81.900	73.500	81.700	71.200	0.969
80.900	73.500	80.700	71.200	0.969
79.800	73.500	79.200	71.200	0.969
78.700	73.500	77.800	71.200	0.969
77.600	73.500	76.500	71.200	0.969
76.500	73.500	75.300	71.200	0.969
75.500	73.500	73.800	71.200	0.969
74.400	73.500	72.700	71.200	0.969
73.700	73.500	72.200	71.200	0.969
72.800	73.500	71.300	71.200	0.969
72.000	73.500	70.700	71.200	0.969
71.200	73.500	70.100	71.200	0.969
70.500	73.500	69.100	71.200	0.969
69.600	73.500	68.200	71.200	0.969
68.900	73.500	67.400	71.200	0.969
68.300	73.500	66.700	71.200	0.969
67.500	73.500	66.000	71.200	0.969
67.000	73.500	65.200	71.200	0.969
66.300	73.500	64.600	71.200	0.969
65.800	73.500	63.900	71.200	0.969
65.100	73.500	63.500	71.200	0.969
64.500	73.500	63.100	71.200	0.969
64.000	73.500	62.400	71.200	0.969
63.500	73.500	62.000	71.200	0.969
63.100	73.500	61.500	71.200	0.969
62.600	73.500	61.200	71.200	0.969
62.100	73.500	60.700	71.200	0.969
61.700	73.500	59.900	71.200	0.970
61.300	73.500	59.500	71.200	0.970
60.700	73.500	59.000	71.200	0.970
60.400	73.500	58.600	71.200	0.970
59.900	73.500	58.000	71.200	0.970
59.500	73.500	57.700	71.200	0.970
59.000	73.500	57.300	71.200	0.970
58.700	73.500	56.800	71.200	0.970
58.200	73.500	56.600	71.200	0.970
57.800	73.500	56.400	71.200	0.970
57.500	73.500	56.000	71.200	0.970
57.200	73.500	55.700	71.200	0.970
56.900	73.500	55.200	71.200	0.970
56.700	73.500	54.800	71.200	0.970
56.600	73.500	54.700	71.200	0.970
56.500	73.500	54.600	71.200	0.970
56.300	73.500	54.600	71.200	0.970
56.000	73.500	54.400	71.200	0.970
55.900	73.500	54.500	71.200	0.970
55.900	73.500	54.600	71.300	0.970
55.400	73.500	54.600	71.300	0.970
55.000	73.500	54.500	71.300	0.970
54.800	73.500	54.000	71.300	0.970
54.300	73.500	53.800	71.300	0.970
53.700	73.500	53.500	71.300	0.970
53.200	73.500	53.000	71.300	0.970
52.700	73.500	52.200	71.300	0.970
52.300	73.500	51.500	71.300	0.970
51.700	73.500	51.000	71.300	0.970
51.200	73.500	50.600	71.300	0.970
50.800	73.500	50.300	71.300	0.970
50.600	73.500	50.200	71.300	0.970
50.700	73.500	50.300	71.300	0.970
51.200	73.500	50.300	71.300	0.970
52.300	73.500	50.400	71.300	0.970
55.800	73.500	50.900	71.300	0.970
59.900	73.500	51.000	71.300	0.970
63.600	73.500	51.900	71.300	0.970
67.400	73.500	55.100	71.300	0.970
71.400	73.500	59.400	71.300	0.970
76.000	73.600	64.700	71.300	0.970
80.600	73.600	71.100	71.300	0.970
84.500	73.600	77.200	71.400	0.970
88.000	73.600	81.300	71.400	0.970
90.900	73.600	83.800	71.400	0.970
93.400	73.600	85.800	71.400	0.970
95.600	73.600	88.800	71.400	0.970
97.400	73.600	91.900	71.400	0.970
99.000	73.600	93.900	71.400	0.970
100.300	73.700	95.500	71.400	0.970
101.800	73.700	96.500	71.400	0.970
103.200	73.700	97.900	71.400	0.970
104.300	73.700	99.600	71.400	0.970
105.500	73.700	101.200	71.400	0.970
106.500	73.700	102.500	71.500	0.970
107.200	73.700	103.500	71.500	0.970
107.600	73.700	104.600	71.500	0.970
107.600	73.700	105.800	71.500	0.970
107.400	73.700	106.200	71.500	0.970
106.800	73.700	106.200	71.500	0.970
105.800	73.700	105.900	71.500	0.970
104.200	73.700	105.300	71.500	0.970
102.100	73.700	104.300	71.500	0.970
99.500	73.700	103.000	71.500	0.970
96.300	73.700	101.100	71.500	0.970
93.600	73.700	98.600	71.500	0.970
91.500	73.700	95.500	71.500	0.970
89.500	73.700	91.800	71.500	0.970
87.700	73.800	88.300	71.500	0.970
86.500	73.800	85.800	71.500	0.970
85.600	73.800	84.400	71.500	0.970
84.700	73.800	83.500	71.600	0.970
83.700	73.800	83.300	71.600	0.970
82.900	73.800	82.900	71.600	0.970
82.000	73.800	81.900	71.600	0.970
80.800	73.800	80.600	71.600	0.970
79.800	73.800	79.300	71.600	0.970
78.800	73.800	78.000	71.600	0.970
77.800	73.800	76.500	71.600	0.970
76.700	73.800	75.400	71.600	0.970
75.600	73.800	74.100	71.600	0.970
74.600	73.800	72.900	71.600	0.970
73.500	73.800	71.800	71.600	0.970
72.800	73.800	71.200	71.600	0.970
71.800	73.800	70.200	71.600	0.970
71.000	73.800	69.500	71.600	0.970
70.300	73.800	69.000	71.600	0.970
69.700	73.800	68.100	71.600	0.970
68.900	73.800	67.400	71.600	0.970
68.100	73.800	66.800	71.600	0.970
67.400	73.800	66.100	71.600	0.970
66.800	73.800	65.400	71.600	0.970
66.100	73.800	64.900	71.600	0.971
65.600	73.800	64.200	71.600	0.971
64.900	73.800	63.400	71.600	0.971
64.400	73.800	62.800	71.600	0.971
63.900	73.800	62.400	71.600	0.971
63.400	73.800	61.700	71.600	0.971
62.800	73.800	61.400	71.600	0.971
62.400	73.800	61.000	71.600	0.971
61.800	73.800	60.300	71.600	0.971
61.400	73.800	60.000	71.600	0.971
61.000	73.800	59.600	71.600	0.971
60.600	73.800	58.900	71.600	0.971
60.200	73.800	58.400	71.600	0.971
59.700	73.800	58.100	71.600	0.971
59.300	73.800	57.800	71.600	0.971
58.800	73.800	57.400	71.600	0.971
58.500	73.800	56.900	71.600	0.971
58.200	73.800	56.600	71.600	0.971
57.700	73.800	56.100	71.600	0.971
57.400	73.800	55.900	71.600	0.971
57.000	73.800	55.600	71.600	0.971
56.700	73.800	55.100	71.600	0.971
56.500	73.800	54.500	71.600	0.971
56.300	73.800	54.500	71.600	0.971
56.200	73.800	54.400	71.600	0.971
56.100	73.800	54.200	71.600	0.971
56.000	73.800	54.200	71.600	0.971
55.800	73.800	54.300	71.600	0.971
55.700	73.800	54.400	71.600	0.971
55.300	73.800	54.200	71.600	0.971
54.900	73.800	53.800	71.600	0.971
54.600	73.800	53.700	71.600	0.971
54.300	73.800	53.400	71.600	0.971
53.700	73.700	53.100	71.600	0.971
53.100	73.700	52.700	71.600	0.971
52.700	73.700	52.100	71.600	0.971
52.400	73.700	51.200	71.600	0.971
51.800	73.700	50.500	71.600	0.971
51.100	73.700	50.200	71.600	0.971
50.600	73.700	50.000	71.600	0.971
50.400	73.700	49.900	71.600	0.971
50.700	73.700	49.800	71.600	0.971
