"sep=\t"
Sampling Freq: 100Hz, 0.01 seconds between each sample
AO	Average AO	PW	Average PW	Pd/Pa
75.000	88.600	69.800	84.900	0.959
74.400	88.600	68.900	84.900	0.959
73.800	88.600	68.300	84.900	0.959
73.300	88.600	68.100	84.900	0.959
72.900	88.500	67.900	84.900	0.958
72.300	88.500	68.400	84.800	0.958
71.700	88.500	69.400	84.800	0.959
71.100	88.500	71.200	84.800	0.959
71.500	88.500	73.100	84.800	0.959
72.900	88.500	75.700	84.800	0.959
73.500	88.400	76.300	84.800	0.959
73.400	88.400	74.500	84.800	0.959
75.000	88.400	74.700	84.800	0.959
79.400	88.400	80.700	84.800	0.959
84.900	88.500	90.300	84.900	0.959
89.300	88.500	97.300	84.900	0.960
93.200	88.500	99.600	85.000	0.960
95.900	88.500	99.700	85.000	0.960
98.500	88.500	100.100	85.000	0.960
101.100	88.500	101.200	85.000	0.960
102.500	88.500	102.400	85.000	0.960
103.500	88.600	103.700	85.000	0.960
104.800	88.600	104.900	85.000	0.960
105.900	88.600	106.000	85.000	0.960
106.900	88.600	106.900	85.000	0.960
107.500	88.600	107.700	85.000	0.960
108.300	88.600	108.100	85.000	0.960
108.800	88.600	108.100	85.000	0.960
109.200	88.600	108.000	85.000	0.960
109.500	88.600	107.900	85.000	0.960
109.800	88.600	107.500	85.000	0.960
109.500	88.600	106.800	85.000	0.960
109.200	88.600	105.900	85.000	0.960
108.500	88.600	104.000	85.000	0.960
107.300	88.600	101.000	85.000	0.959
105.000	88.600	96.800	85.000	0.959
101.500	88.600	91.100	85.000	0.959
97.900	88.600	85.700	84.900	0.959
96.400	88.600	84.400	84.900	0.958
95.600	88.600	87.000	84.900	0.958
95.300	88.600	88.400	84.900	0.959
95.100	88.600	87.800	85.000	0.959
95.000	88.600	87.000	85.000	0.959
95.300	88.600	87.100	85.000	0.959
95.300	88.700	87.100	85.000	0.959
95.300	88.700	87.100	85.000	0.959
95.200	88.700	87.100	85.000	0.959
94.900	88.700	86.700	85.000	0.959
94.800	88.700	86.600	85.100	0.959
93.900	88.800	86.800	85.100	0.959
92.500	88.800	86.800	85.100	0.959
91.000	88.800	86.300	85.100	0.959
90.300	88.800	85.800	85.100	0.959
90.000	88.800	85.000	85.100	0.959
103.600	88.900	84.500	85.100	0.958
83.100	88.900	84.300	85.200	0.958
93.800	88.900	84.000	85.200	0.958
90.400	88.900	83.400	85.200	0.958
94.700	89.000	83.000	85.200	0.958
88.900	89.000	82.700	85.200	0.958
90.500	89.000	82.500	85.200	0.958
91.300	89.000	81.800	85.200	0.957
92.300	89.100	81.100	85.300	0.957
90.700	89.100	80.600	85.300	0.957
90.700	89.200	80.200	85.300	0.957
91.700	89.200	80.200	85.300	0.956
91.900	89.200	80.300	85.300	0.956
92.000	89.300	80.300	85.300	0.956
91.700	89.300	79.900	85.400	0.955
91.000	89.400	79.600	85.400	0.955
91.100	89.400	78.700	85.400	0.955
91.200	89.500	77.600	85.400	0.954
91.500	89.600	76.700	85.400	0.954
91.800	89.600	76.600	85.400	0.953
91.600	89.700	76.400	85.400	0.953
91.600	89.700	75.900	85.400	0.952
91.700	89.800	75.200	85.500	0.952
92.000	89.900	74.200	85.500	0.951
91.900	89.900	72.900	85.500	0.951
91.800	90.000	72.000	85.500	0.950
92.000	90.100	71.800	85.500	0.949
92.300	90.200	72.000	85.500	0.948
92.700	90.200	72.200	85.500	0.948
92.500	90.300	72.800	85.500	0.947
92.900	90.400	74.300	85.600	0.946
93.000	90.500	76.100	85.600	0.946
93.100	90.600	78.300	85.700	0.945
93.100	90.700	79.200	85.700	0.945
92.800	90.800	78.300	85.700	0.944
92.400	90.900	78.600	85.800	0.944
92.500	91.000	84.000	85.800	0.943
92.700	91.000	93.100	85.900	0.943
93.100	91.200	100.000	86.000	0.943
93.600	91.200	102.300	86.000	0.943
93.400	91.200	102.700	86.100	0.943
93.300	91.200	103.700	86.100	0.944
93.300	91.200	106.400	86.100	0.945
93.300	91.100	109.300	86.200	0.945
93.000	91.100	111.600	86.200	0.946
92.700	91.100	112.900	86.200	0.947
91.900	91.000	114.000	86.300	0.948
92.100	90.900	115.400	86.300	0.949
92.100	90.800	116.800	86.400	0.951
92.100	90.800	117.800	86.400	0.952
91.800	90.700	118.400	86.400	0.953
92.100	90.600	118.300	86.500	0.954
91.900	90.600	118.300	86.500	0.955
92.000	90.500	118.400	86.600	0.957
91.700	90.400	117.800	86.600	0.958
91.900	90.400	117.100	86.700	0.959
91.800	90.300	116.400	86.700	0.960
91.900	90.200	115.000	86.800	0.961
91.800	90.200	112.600	86.800	0.963
92.200	90.100	109.300	86.900	0.964
92.300	90.100	104.100	86.900	0.964
92.200	90.100	97.800	86.900	0.965
92.300	90.100	92.500	87.000	0.966
91.900	90.100	92.200	87.000	0.966
92.200	90.000	95.700	87.100	0.967
91.800	90.000	96.300	87.100	0.967
91.700	90.000	94.900	87.100	0.968
91.800	90.000	94.200	87.200	0.969
91.600	90.000	94.500	87.200	0.969
91.700	90.000	95.500	87.300	0.970
91.600	90.000	96.000	87.300	0.970
91.700	90.000	95.600	87.300	0.971
91.800	90.000	95.300	87.400	0.971
91.800	90.000	94.800	87.400	0.971
91.600	90.000	94.500	87.500	0.972
91.900	90.000	93.700	87.500	0.972
91.800	90.000	92.900	87.500	0.972
91.900	90.000	92.300	87.600	0.973
91.900	90.000	91.700	87.600	0.973
91.900	90.100	91.200	87.600	0.973
91.900	90.100	90.500	87.700	0.973
92.100	90.100	89.900	87.700	0.974
92.000	90.100	89.800	87.800	0.974
92.000	90.100	89.000	87.800	0.974
92.100	90.200	88.200	87.800	0.974
92.100	90.200	87.800	87.900	0.974
91.900	90.200	87.200	87.900	0.974
91.900	90.300	86.500	87.900	0.974
91.800	90.300	86.100	88.000	0.974
91.300	90.300	86.000	88.000	0.974
90.400	90.400	86.100	88.000	0.974
91.000	90.400	86.000	88.100	0.974
91.800	90.500	85.300	88.100	0.974
91.800	90.500	84.400	88.100	0.974
91.400	90.600	83.400	88.200	0.974
91.400	90.600	82.900	88.200	0.973
91.600	90.700	82.300	88.200	0.973
92.900	90.700	81.600	88.300	0.973
93.200	90.800	80.900	88.300	0.973
93.000	90.900	80.100	88.300	0.972
92.800	90.900	79.300	88.400	0.972
93.300	91.000	78.400	88.400	0.971
93.700	91.100	77.200	88.400	0.971
93.900	91.200	76.700	88.500	0.970
93.400	91.300	77.000	88.500	0.970
93.200	91.300	77.100	88.500	0.969
93.600	91.400	76.800	88.600	0.969
94.200	91.500	77.400	88.600	0.968
94.700	91.600	78.600	88.700	0.968
94.300	91.700	80.700	88.700	0.967
94.700	91.800	82.600	88.800	0.967
94.100	91.900	82.900	88.800	0.966
94.200	92.000	82.400	88.800	0.965
94.700	92.100	84.200	88.900	0.965
94.600	92.200	90.900	89.000	0.965
94.200	92.300	99.800	89.000	0.965
93.300	92.300	105.800	89.100	0.966
93.200	92.300	107.600	89.200	0.966
92.700	92.300	108.300	89.200	0.966
92.800	92.300	110.300	89.300	0.967
92.500	92.300	113.400	89.300	0.968
92.400	92.300	116.000	89.400	0.969
92.400	92.300	117.800	89.500	0.970
93.100	92.200	119.600	89.500	0.971
93.200	92.200	121.800	89.600	0.972
93.200	92.100	123.700	89.700	0.974
92.800	92.100	125.000	89.800	0.975
92.800	92.000	125.700	89.900	0.977
92.700	91.900	126.100	89.900	0.978
92.800	91.900	126.200	90.000	0.980
92.800	91.800	126.000	90.100	0.982
92.900	91.700	125.500	90.200	0.983
92.700	91.700	125.500	90.300	0.985
92.800	91.600	125.100	90.300	0.986
92.900	91.500	124.100	90.400	0.988
92.800	91.500	122.800	90.500	0.989
93.000	91.400	120.700	90.600	0.991
92.800	91.400	117.700	90.700	0.992
92.900	91.300	113.500	90.800	0.994
92.800	91.300	107.300	90.900	0.995
92.800	91.300	100.700	90.900	0.996
92.700	91.300	98.200	91.000	0.997
92.700	91.300	100.300	91.100	0.998
92.600	91.300	101.500	91.100	0.998
92.500	91.300	100.800	91.200	0.999
92.500	91.300	100.700	91.300	1.000
92.400	91.300	101.500	91.400	1.001
92.500	91.300	102.300	91.500	1.002
92.300	91.300	101.900	91.500	1.002
92.400	91.300	101.200	91.600	1.003
92.300	91.300	100.800	91.700	1.004
92.400	91.300	100.600	91.700	1.005
92.400	91.300	100.100	91.800	1.005
92.400	91.300	99.600	91.900	1.006
92.300	91.400	98.900	92.000	1.006
92.400	91.400	98.100	92.000	1.007
92.600	91.400	97.300	92.100	1.008
92.600	91.400	96.500	92.200	1.008
92.500	91.500	95.800	92.200	1.008
92.200	91.500	95.300	92.300	1.009
92.200	91.500	94.400	92.400	1.009
91.900	91.500	93.500	92.400	1.010
92.000	91.600	92.900	92.500	1.010
92.100	91.600	92.200	92.500	1.010
92.100	91.600	91.400	92.600	1.010
92.000	91.700	90.700	92.700	1.010
92.500	91.700	89.900	92.700	1.011
92.200	91.800	89.400	92.800	1.011
92.200	91.800	89.500	92.800	1.011
92.100	91.900	89.600	92.900	1.011
92.100	91.900	89.100	92.900	1.011
92.100	92.000	88.600	93.000	1.011
91.900	92.000	87.600	93.000	1.011
91.900	92.100	86.400	93.100	1.011
91.900	92.100	85.700	93.100	1.011
92.200	92.200	85.500	93.200	1.011
91.900	92.300	84.800	93.200	1.011
92.000	92.300	84.100	93.300	1.011
91.900	92.400	83.600	93.400	1.010
92.000	92.500	82.600	93.400	1.010
92.000	92.500	81.800	93.500	1.010
91.900	92.600	80.600	93.500	1.010
91.800	92.700	79.900	93.600	1.009
92.100	92.800	80.100	93.600	1.009
91.900	92.800	80.200	93.700	1.009
91.800	92.900	79.800	93.700	1.008
91.800	93.000	80.200	93.800	1.008
92.100	93.100	81.600	93.800	1.007
92.100	93.200	83.900	93.800	1.007
91.800	93.300	85.700	93.900	1.007
91.700	93.400	85.600	93.900	1.006
91.600	93.400	85.000	94.000	1.006
91.800	93.500	86.300	94.000	1.005
91.500	93.600	92.300	94.100	1.005
91.600	93.600	101.400	94.100	1.006
91.600	93.600	108.400	94.200	1.006
91.700	93.600	111.600	94.200	1.007
91.900	93.600	112.800	94.300	1.007
91.600	93.500	114.100	94.300	1.008
91.500	93.500	117.000	94.400	1.010
91.300	93.500	120.300	94.500	1.011
91.500	93.400	122.700	94.600	1.012
91.700	93.300	124.400	94.600	1.014
91.700	93.300	126.200	94.700	1.015
91.700	93.200	128.100	94.800	1.017
91.700	93.200	129.600	94.900	1.019
91.700	93.100	130.500	95.000	1.021
91.600	93.000	130.900	95.100	1.023
91.400	92.900	130.800	95.200	1.024
91.400	92.900	130.700	95.300	1.026
91.400	92.800	130.800	95.400	1.028
91.300	92.700	130.500	95.500	1.030
91.400	92.600	130.200	95.600	1.032
91.200	92.500	129.600	95.700	1.034
91.300	92.500	128.600	95.800	1.036
91.400	92.400	127.000	96.000	1.038
91.200	92.400	124.100	96.100	1.040
91.200	92.300	119.600	96.200	1.042
91.200	92.300	113.600	96.400	1.044
91.300	92.300	106.800	96.500	1.045
91.400	92.300	102.500	96.500	1.046
91.400	92.300	104.200	96.600	1.047
91.200	92.300	106.200	96.700	1.048
91.400	92.200	105.500	96.700	1.049
91.300	92.200	105.100	96.800	1.050
91.200	92.200	105.900	96.900	1.051
91.200	92.200	106.100	97.000	1.052
90.900	92.200	105.900	97.100	1.053
91.000	92.200	105.300	97.100	1.054
91.000	92.100	104.600	97.200	1.055
91.200	92.100	104.300	97.300	1.056
91.100	92.100	103.900	97.400	1.057
91.200	92.100	103.300	97.400	1.058
91.200	92.100	102.800	97.500	1.058
91.100	92.100	102.200	97.600	1.060
90.900	92.100	101.100	97.700	1.060
90.900	92.100	100.700	97.700	1.061
90.800	92.100	99.900	97.800	1.062
90.900	92.100	98.700	97.900	1.063
90.700	92.100	97.900	97.900	1.063
91.000	92.100	97.200	98.000	1.064
90.800	92.100	96.500	98.100	1.065
90.900	92.100	95.800	98.100	1.065
90.800	92.100	95.100	98.200	1.066
90.600	92.100	94.300	98.300	1.067
90.600	92.100	93.400	98.300	1.067
90.700	92.100	92.600	98.400	1.068
90.400	92.100	92.100	98.400	1.069
90.600	92.100	91.800	98.500	1.069
90.500	92.100	91.300	98.500	1.070
90.700	92.100	91.500	98.600	1.070
90.600	92.100	91.600	98.600	1.071
90.800	92.100	90.900	98.700	1.072
90.700	92.100	89.900	98.700	1.073
90.700	92.100	88.700	98.800	1.073
90.600	92.100	87.500	98.800	1.074
90.600	92.100	86.600	98.900	1.074
90.600	92.100	85.800	98.900	1.075
90.400	92.000	85.200	99.000	1.076
90.400	92.000	85.100	99.100	1.076
90.600	92.000	84.300	99.100	1.077
90.600	92.000	83.000	99.200	1.077
90.400	92.000	81.700	99.200	1.078
90.300	92.000	81.000	99.200	1.079
90.400	92.000	81.000	99.300	1.079
90.200	92.000	81.600	99.300	1.079
90.300	92.000	81.500	99.300	1.080
90.300	92.000	81.600	99.300	1.080
90.200	91.900	83.300	99.300	1.080
90.400	91.900	85.300	99.400	1.081
90.400	91.900	87.700	99.400	1.081
90.400	91.900	87.800	99.400	1.081
90.400	91.900	85.700	99.300	1.080
90.400	91.900	84.700	99.200	1.080
90.200	91.900	88.400	99.200	1.079
90.100	91.900	97.200	99.100	1.079
90.100	91.900	106.500	99.100	1.079
90.200	91.800	111.800	99.100	1.079
90.200	91.800	114.100	99.100	1.080
90.200	91.800	115.300	99.200	1.080
90.300	91.800	117.600	99.200	1.080
90.200	91.800	120.100	99.200	1.080
90.200	91.800	121.900	99.200	1.081
90.000	91.800	123.600	99.200	1.081
90.100	91.800	125.200	99.300	1.082
90.100	91.800	126.500	99.300	1.082
90.100	91.800	127.800	99.300	1.083
90.000	91.800	128.600	99.400	1.083
90.000	91.700	129.400	99.400	1.084
90.000	91.700	129.800	99.500	1.085
90.000	91.700	130.100	99.600	1.085
90.000	91.700	130.300	99.600	1.086
89.900	91.700	130.300	99.700	1.087
90.000	91.700	130.000	99.800	1.088
90.200	91.700	129.400	99.900	1.089
90.100	91.700	128.500	100.000	1.091
89.900	91.700	127.000	100.200	1.093
90.100	91.700	124.700	100.300	1.094
90.000	91.700	120.000	100.400	1.095
89.800	91.700	113.600	100.500	1.096
89.800	91.600	106.100	100.500	1.097
89.800	91.600	101.500	100.600	1.097
89.900	91.600	103.400	100.600	1.098
90.000	91.600	106.400	100.600	1.099
90.100	91.600	106.300	100.700	1.099
90.200	91.600	104.800	100.700	1.100
90.100	91.600	104.700	100.800	1.100
89.900	91.600	105.000	100.800	1.101
89.800	91.600	105.500	100.900	1.101
89.700	91.600	105.600	100.900	1.102
89.700	91.600	105.100	101.000	1.103
89.800	91.600	104.300	101.000	1.103
89.900	91.500	103.600	101.100	1.104
90.100	91.500	103.400	101.100	1.105
90.300	91.500	102.700	101.200	1.105
90.100	91.500	101.800	101.200	1.106
90.000	91.500	100.900	101.300	1.107
89.900	91.500	100.200	101.300	1.107
89.800	91.500	99.300	101.400	1.108
89.700	91.500	98.800	101.400	1.108
89.700	91.500	98.300	101.500	1.109
89.600	91.500	97.100	101.500	1.110
89.700	91.500	96.400	101.500	1.110
89.600	91.500	95.900	101.600	1.111
89.800	91.400	95.100	101.600	1.111
89.900	91.400	94.700	101.700	1.112
89.900	91.400	93.800	101.700	1.112
89.800	91.400	93.000	101.700	1.113
89.800	91.400	92.100	101.800	1.113
89.800	91.400	91.200	101.800	1.114
89.800	91.400	90.600	101.800	1.114
89.600	91.400	90.100	101.900	1.115
89.700	91.400	90.000	101.900	1.115
89.800	91.400	90.200	102.000	1.116
89.800	91.400	89.900	102.000	1.117
89.800	91.300	89.000	102.100	1.117
89.900	91.300	88.200	102.100	1.118
90.000	91.300	87.600	102.100	1.119
90.100	91.300	86.900	102.200	1.119
90.100	91.300	86.500	102.200	1.120
90.000	91.300	86.400	102.300	1.121
90.000	91.200	86.900	102.300	1.121
90.000	91.200	86.500	102.300	1.122
90.000	91.200	85.400	102.400	1.122
90.000	91.200	83.600	102.400	1.123
90.000	91.200	82.300	102.400	1.123
90.000	91.100	82.200	102.400	1.123
90.100	91.100	82.300	102.400	1.123
90.100	91.100	82.200	102.300	1.123
90.000	91.100	81.500	102.200	1.122
90.100	91.100	81.500	102.100	1.121
89.800	91.100	83.000	102.000	1.120
90.000	91.100	84.800	101.900	1.120
90.000	91.000	86.700	101.800	1.119
90.100	91.000	87.000	101.700	1.117
90.000	91.000	85.300	101.600	1.116
89.900	91.000	83.700	101.400	1.115
90.000	91.000	86.200	101.300	1.113
90.100	91.000	95.300	101.200	1.112
90.000	91.000	106.000	101.100	1.112
90.000	91.000	113.100	101.300	1.114
90.100	91.000	116.100	101.300	1.114
90.000	91.000	116.900	101.300	1.114
90.100	90.900	118.300	101.300	1.113
90.000	90.900	120.900	101.200	1.113
90.000	90.900	123.300	101.200	1.113
90.000	90.900	124.800	101.200	1.113
90.100	90.900	126.000	101.200	1.114
90.200	90.900	127.600	101.200	1.114
90.100	90.900	129.700	101.300	1.114
89.900	90.900	131.300	101.300	1.115
89.900	90.900	131.800	101.300	1.115
90.000	90.800	132.300	101.400	1.116
89.900	90.800	133.000	101.400	1.116
90.100	90.800	133.600	101.500	1.117
90.000	90.800	133.800	101.600	1.118
90.300	90.800	133.600	101.700	1.120
90.400	90.800	133.100	101.800	1.121
90.700	90.800	132.500	102.000	1.123
90.400	90.800	131.400	102.100	1.125
90.100	90.800	129.600	102.200	1.126
90.300	90.700	126.800	102.300	1.127
90.400	90.700	122.200	102.400	1.129
90.400	90.700	115.100	102.500	1.129
90.200	90.700	107.500	102.500	1.130
90.400	90.700	104.800	102.500	1.130
90.300	90.700	108.300	102.500	1.130
90.200	90.700	110.800	102.600	1.131
90.200	90.700	110.500	102.600	1.131
90.200	90.700	109.200	102.600	1.132
90.200	90.700	108.600	102.700	1.133
90.300	90.700	108.600	102.700	1.133
90.500	90.600	108.600	102.800	1.134
90.500	90.600	108.300	102.800	1.134
90.400	90.600	108.100	102.900	1.135
90.400	90.600	107.600	102.900	1.136
90.300	90.600	107.200	103.000	1.136
90.400	90.600	106.500	103.000	1.137
90.200	90.600	105.700	103.100	1.138
90.300	90.600	104.600	103.100	1.138
90.200	90.600	103.500	103.200	1.139
90.400	90.600	102.700	103.200	1.139
90.400	90.600	101.900	103.300	1.140
90.600	90.600	101.300	103.300	1.141
90.300	90.600	100.500	103.400	1.141
90.400	90.500	99.600	103.400	1.142
90.500	90.500	98.700	103.400	1.142
90.600	90.500	97.800	103.500	1.143
90.500	90.500	97.100	103.500	1.143
90.600	90.500	96.300	103.500	1.144
90.700	90.500	95.700	103.600	1.144
90.700	90.500	95.000	103.600	1.145
90.500	90.500	93.900	103.700	1.145
90.600	90.500	93.300	103.700	1.146
90.600	90.500	92.900	103.700	1.146
90.700	90.500	92.400	103.800	1.147
90.600	90.500	92.200	103.800	1.147
90.900	90.500	92.300	103.900	1.148
90.800	90.500	92.200	103.900	1.148
90.800	90.500	91.600	103.900	1.149
90.800	90.500	91.200	104.000	1.150
90.800	90.500	90.400	104.000	1.150
90.800	90.500	89.500	104.100	1.151
90.600	90.400	88.800	104.100	1.151
90.600	90.400	88.700	104.100	1.152
90.500	90.400	88.900	104.200	1.152
90.700	90.400	88.900	104.200	1.152
90.600	90.400	87.900	104.200	1.152
90.800	90.400	86.300	104.200	1.152
90.700	90.400	84.900	104.200	1.152
91.000	90.400	85.100	104.200	1.152
91.000	90.400	85.600	104.100	1.151
90.900	90.400	84.800	104.000	1.150
90.800	90.400	83.900	103.900	1.149
90.700	90.400	83.500	103.800	1.148
90.600	90.400	85.100	103.600	1.146
90.600	90.400	88.000	103.500	1.145
90.600	90.400	90.200	103.400	1.144
90.600	90.400	89.500	103.200	1.142
90.700	90.400	87.200	103.100	1.141
90.900	90.400	86.600	102.900	1.139
91.000	90.400	90.000	102.800	1.137
90.800	90.400	98.700	102.600	1.136
90.800	90.400	107.800	102.500	1.135
90.600	90.400	113.300	103.300	1.143
90.600	90.400	115.600	103.300	1.143
90.600	90.400	117.200	103.300	1.143
90.600	90.400	120.200	103.300	1.142
90.900	90.400	124.100	103.300	1.142
90.900	90.400	126.800	103.300	1.143
90.900	90.400	128.700	103.300	1.143
91.000	90.400	130.900	103.300	1.143
90.800	90.400	133.200	103.300	1.143
90.600	90.400	135.100	103.300	1.143
90.500	90.400	136.400	103.300	1.143
90.600	90.400	138.000	103.400	1.144
90.600	90.400	138.900	103.400	1.144
90.500	90.400	139.800	103.400	1.145
90.700	90.400	140.500	103.500	1.145
90.500	90.400	140.700	103.500	1.146
90.800	90.400	140.600	103.600	1.146
90.600	90.400	140.400	103.600	1.147
90.900	90.400	139.800	103.700	1.148
90.700	90.300	139.300	103.800	1.149
90.800	90.300	138.400	103.900	1.150
90.700	90.300	136.500	104.000	1.151
90.900	90.300	133.700	104.100	1.152
90.600	90.300	129.400	104.200	1.154
90.700	90.300	123.200	104.300	1.154
90.800	90.300	115.600	104.300	1.155
90.600	90.300	110.200	104.300	1.155
90.400	90.300	112.000	104.400	1.155
90.400	90.300	115.600	104.400	1.156
90.600	90.300	115.300	104.500	1.156
90.500	90.300	113.200	104.500	1.157
90.400	90.300	112.300	104.500	1.157
90.500	90.300	112.700	104.500	1.158
90.500	90.300	111.900	104.600	1.158
90.500	90.300	110.900	104.600	1.158
90.500	90.300	110.300	104.600	1.159
90.500	90.300	109.600	104.700	1.159
90.600	90.300	109.000	104.700	1.159
90.600	90.300	107.900	104.700	1.160
90.600	90.300	107.000	104.800	1.160
90.500	90.300	106.100	104.800	1.160
90.400	90.300	105.300	104.800	1.161
90.300	90.300	104.000	104.900	1.161
90.200	90.300	103.100	104.900	1.161
90.300	90.300	102.300	104.900	1.162
90.400	90.300	101.300	104.900	1.162
90.500	90.300	100.200	105.000	1.162
90.500	90.300	99.500	105.000	1.163
90.600	90.300	98.600	105.000	1.163
90.500	90.300	97.600	105.000	1.163
90.400	90.300	96.900	105.000	1.163
90.200	90.300	96.200	105.100	1.164
90.400	90.300	95.300	105.100	1.164
90.300	90.300	94.200	105.100	1.164
90.300	90.300	93.300	105.100	1.164
90.500	90.300	92.600	105.100	1.164
90.600	90.300	91.700	105.100	1.164
90.600	90.300	90.700	105.100	1.165
90.600	90.300	90.000	105.200	1.165
90.600	90.300	89.700	105.200	1.165
90.500	90.300	89.300	105.200	1.165
90.400	90.300	88.800	105.200	1.165
90.200	90.300	89.000	105.200	1.165
90.100	90.300	88.600	105.200	1.166
90.100	90.300	87.600	105.300	1.166
90.100	90.300	87.200	105.300	1.166
90.400	90.300	86.600	105.300	1.167
90.200	90.300	86.200	105.300	1.167
90.500	90.300	85.800	105.300	1.167
90.200	90.300	85.200	105.400	1.167
90.200	90.300	84.700	105.400	1.167
90.200	90.300	83.300	105.400	1.167
89.900	90.300	82.400	105.300	1.167
90.400	90.300	82.600	105.300	1.167
90.800	90.300	83.000	105.300	1.166
90.400	90.300	82.200	105.300	1.166
90.200	90.300	80.600	105.300	1.166
91.600	90.300	79.700	105.200	1.165
90.600	90.300	80.100	105.100	1.164
91.600	90.300	82.200	105.000	1.163
90.500	90.300	85.300	104.800	1.161
90.700	90.300	86.600	104.700	1.160
157.900	90.600	84.800	104.600	1.155
72.900	90.500	83.100	104.400	1.154
59.800	90.400	84.400	104.300	1.154
77.000	90.300	89.200	104.200	1.153
95.200	90.300	97.800	104.000	1.152
100.800	90.400	106.000	104.200	1.153
104.400	90.400	109.700	104.200	1.152
114.400	90.500	111.000	104.100	1.150
123.200	90.700	112.600	104.000	1.148
127.300	90.800	115.800	104.000	1.145
127.700	91.000	119.900	104.000	1.143
129.400	91.100	123.200	103.900	1.141
131.600	91.300	125.500	103.900	1.138
132.500	91.500	127.700	103.900	1.136
132.500	91.600	129.700	103.900	1.134
132.600	91.800	131.900	103.900	1.132
134.600	92.000	133.900	103.900	1.130
136.200	92.200	135.200	104.000	1.128
136.500	92.400	136.300	104.000	1.126
138.300	92.600	137.300	104.000	1.124
140.800	92.800	137.800	104.100	1.122
142.500	93.000	137.900	104.200	1.120
145.300	93.200	138.200	104.300	1.119
146.600	93.400	138.300	104.400	1.117
144.800	93.600	138.100	104.500	1.116
141.800	93.800	137.300	104.700	1.115
137.800	94.000	136.300	104.800	1.114
132.900	94.200	134.700	104.900	1.113
122.000	94.300	132.600	105.000	1.113
119.700	94.500	129.100	105.100	1.113
111.200	94.500	123.700	105.200	1.113
120.700	94.700	117.200	105.200	1.112
133.300	94.800	109.400	105.200	1.110
126.100	95.000	106.700	105.300	1.108
112.600	95.100	110.100	105.300	1.107
103.100	95.100	111.500	105.300	1.107
112.800	95.200	110.500	105.300	1.106
119.800	95.300	109.400	105.400	1.105
118.600	95.500	108.700	105.400	1.104
119.400	95.600	108.000	105.400	1.103
113.700	95.700	107.200	105.400	1.102
114.600	95.800	105.900	105.500	1.101
113.400	95.900	104.800	105.500	1.100
112.300	96.000	103.500	105.500	1.100
112.200	96.000	102.500	105.500	1.099
111.400	96.100	101.800	105.600	1.098
109.200	96.200	100.800	105.600	1.097
102.500	96.300	99.600	105.600	1.097
100.600	96.300	98.900	105.600	1.097
100.100	96.300	98.000	105.600	1.096
99.900	96.400	96.800	105.600	1.096
100.300	96.400	95.900	105.700	1.096
99.900	96.500	94.700	105.700	1.095
99.200	96.500	93.600	105.700	1.095
97.700	96.500	92.700	105.700	1.095
97.400	96.600	91.500	105.700	1.095
97.800	96.600	90.600	105.700	1.094
96.100	96.600	89.800	105.700	1.094
97.100	96.700	88.800	105.700	1.094
92.900	96.700	87.700	105.700	1.093
91.700	96.700	86.800	105.700	1.093
91.300	96.700	86.200	105.700	1.093
89.000	96.700	85.200	105.700	1.093
89.100	96.700	84.300	105.700	1.093
88.100	96.700	83.300	105.700	1.093
87.000	96.700	82.500	105.700	1.093
86.700	96.600	81.600	105.600	1.093
86.100	96.600	80.900	105.600	1.093
85.600	96.600	80.300	105.600	1.093
84.800	96.600	79.500	105.600	1.093
84.300	96.600	79.400	105.600	1.094
84.000	96.500	79.300	105.600	1.094
84.100	96.500	79.400	105.600	1.094
84.300	96.500	79.300	105.600	1.094
84.100	96.500	79.000	105.600	1.094
83.400	96.400	78.500	105.500	1.094
83.100	96.400	77.300	105.500	1.094
82.600	96.400	76.700	105.400	1.094
81.900	96.400	76.300	105.400	1.094
81.000	96.300	75.700	105.400	1.094
79.800	96.300	76.300	105.300	1.094
80.700	96.200	76.700	105.300	1.094
81.400	96.200	75.300	105.100	1.093
77.600	96.200	73.400	105.000	1.092
78.100	96.100	72.600	104.800	1.091
77.000	96.100	73.000	104.600	1.089
79.200	96.000	72.900	104.500	1.088
74.200	95.900	72.100	104.300	1.087
77.100	95.900	71.300	104.000	1.085
73.800	95.800	71.800	103.800	1.083
75.100	95.800	74.100	103.600	1.082
78.500	95.700	77.000	103.400	1.080
77.700	95.700	78.300	103.200	1.079
78.500	95.600	77.300	103.000	1.077
79.500	95.600	75.600	102.800	1.075
82.300	95.600	75.700	102.500	1.073
85.600	95.500	80.700	102.300	1.071
90.100	95.500	89.600	102.200	1.069
98.600	95.500	98.100	102.400	1.072
103.300	95.600	102.500	102.300	1.070
108.500	95.600	104.200	102.200	1.068
111.200	95.700	105.500	102.000	1.066
116.000	95.800	107.800	101.900	1.064
114.500	95.900	110.100	101.800	1.062
119.100	96.000	111.700	101.800	1.060
118.400	96.100	113.700	101.700	1.058
119.900	96.300	115.800	101.600	1.056
122.700	96.400	118.000	101.600	1.054
124.700	96.500	120.300	101.600	1.053
126.200	96.700	122.100	101.600	1.051
128.000	96.800	123.400	101.700	1.050
129.000	97.000	124.000	101.800	1.049
130.200	97.100	125.300	101.800	1.048
132.100	97.300	126.200	101.900	1.047
135.100	97.500	126.200	102.000	1.046
133.500	97.600	126.300	102.000	1.045
131.800	97.800	126.400	102.100	1.044
132.200	98.000	126.400	102.200	1.043
131.400	98.100	125.700	102.200	1.042
130.300	98.300	124.600	102.300	1.041
128.500	98.400	122.900	102.400	1.040
123.700	98.600	120.600	102.400	1.039
119.700	98.700	117.000	102.400	1.038
114.100	98.800	111.300	102.500	1.037
106.200	98.900	104.300	102.500	1.036
103.100	98.900	98.500	102.400	1.036
102.700	99.000	98.400	102.400	1.035
103.100	99.000	101.100	102.400	1.034
103.700	99.100	101.500	102.400	1.034
105.800	99.100	99.800	102.400	1.033
108.200	99.200	97.700	102.400	1.032
109.500	99.300	96.500	102.400	1.031
109.000	99.300	95.500	102.400	1.030
107.500	99.400	94.900	102.400	1.030
106.700	99.500	94.300	102.300	1.029
105.500	99.500	93.800	102.300	1.028
103.800	99.600	93.600	102.300	1.028
102.000	99.600	92.600	102.300	1.027
101.400	99.700	92.000	102.300	1.026
101.200	99.700	91.400	102.300	1.026
99.500	99.700	90.800	102.300	1.026
98.000	99.800	90.200	102.300	1.025
98.400	99.800	89.200	102.300	1.025
98.100	99.800	88.200	102.300	1.024
203.500	100.300	87.500	102.200	1.020
226.800	100.800	86.900	102.200	1.014
237.900	101.400	86.000	102.200	1.008
242.000	102.000	84.900	102.200	1.002
243.400	102.600	83.800	102.200	0.996
228.900	103.200	83.100	102.100	0.990
231.400	103.700	82.600	102.100	0.984
250.600	104.400	81.800	102.100	0.978
259.100	105.000	81.000	102.000	0.972
278.800	105.800	79.900	102.000	0.965
270.500	106.500	78.800	102.000	0.958
277.700	107.200	78.000	102.000	0.951
300.300	108.100	77.300	101.900	0.943
300.400	108.900	76.500	101.900	0.936
306.400	109.700	75.900	101.900	0.928
303.300	110.600	75.200	101.800	0.921
291.200	111.400	74.600	101.800	0.914
291.200	112.200	74.100	101.700	0.907
331.100	113.100	73.700	101.700	0.899
345.400	114.100	73.900	101.600	0.890
362.100	115.200	74.100	101.600	0.881
343.200	116.200	73.800	101.500	0.873
370.600	117.300	72.900	101.400	0.865
379.500	118.500	72.200	101.400	0.856
368.600	119.600	72.100	101.300	0.847
358.600	120.600	71.600	101.100	0.838
344.300	121.600	71.400	101.000	0.830
348.000	122.700	72.300	100.800	0.822
355.800	123.700	72.600	100.600	0.813
409.600	125.000	71.800	100.400	0.803
418.300	126.300	70.000	100.200	0.794
424.800	127.600	69.000	100.000	0.783
427.600	128.900	69.100	99.700	0.774
413.200	130.200	69.000	99.500	0.764
387.900	131.400	68.600	99.200	0.755
384.800	132.600	68.400	99.000	0.747
415.600	133.900	68.800	98.700	0.737
454.600	135.300	71.100	98.400	0.728
454.600	136.700	73.700	98.200	0.718
454.600	138.200	75.500	97.900	0.709
454.600	139.600	75.800	97.700	0.699
452.800	141.100	74.800	97.400	0.690
445.300	142.500	74.300	97.100	0.682
454.600	143.900	76.700	96.900	0.673
454.600	145.400	84.100	96.700	0.665
454.600	146.800	93.100	96.500	0.657
454.600	146.300	99.300	97.800	0.669
454.600	147.700	102.100	97.700	0.662
454.600	149.100	103.400	97.600	0.654
454.600	150.500	105.100	97.400	0.648
454.600	151.800	106.800	97.300	0.641
454.600	153.200	108.300	97.200	0.634
454.600	154.600	110.200	97.000	0.628
454.600	156.000	112.100	96.900	0.621
454.600	157.400	114.100	96.800	0.615
454.600	158.800	116.400	96.800	0.609
454.600	160.200	118.100	96.700	0.604
454.600	161.600	120.000	96.600	0.598
454.600	163.000	121.600	96.600	0.593
454.600	164.400	122.300	96.600	0.588
454.600	165.800	122.800	96.600	0.583
454.600	167.200	123.200	96.700	0.578
454.600	168.600	123.500	96.700	0.574
454.600	170.000	123.500	96.800	0.569
454.600	171.400	123.400	96.800	0.565
454.600	172.800	122.900	96.800	0.560
454.600	174.200	122.400	96.900	0.556
454.600	175.600	121.500	96.900	0.552
454.600	177.000	119.500	96.900	0.548
454.600	178.300	116.100	96.900	0.544
454.600	179.700	110.700	96.900	0.539
454.600	181.100	104.200	96.900	0.535
454.600	182.500	98.000	96.900	0.531
454.600	183.900	96.600	96.800	0.527
454.600	185.300	99.200	96.800	0.522
454.600	186.700	100.300	96.800	0.518
454.600	188.100	99.300	96.800	0.514
454.600	189.500	97.600	96.700	0.511
454.600	190.900	96.000	96.700	0.507
454.600	192.300	94.600	96.700	0.503
454.600	193.700	93.700	96.700	0.499
454.600	195.100	93.600	96.600	0.495
454.600	196.500	93.600	96.600	0.492
454.600	197.900	93.200	96.600	0.488
454.600	199.300	93.000	96.600	0.485
454.600	200.700	92.600	96.600	0.481
454.600	202.100	91.600	96.500	0.478
454.600	203.500	91.200	96.500	0.474
454.600	204.900	90.700	96.500	0.471
454.600	206.300	90.100	96.500	0.468
454.600	207.600	89.400	96.500	0.465
454.600	209.000	88.800	96.500	0.462
454.600	210.400	88.100	96.500	0.458
454.600	211.800	87.700	96.500	0.455
454.600	213.200	87.400	96.400	0.452
454.600	214.600	86.400	96.400	0.449
454.600	216.000	85.500	96.400	0.446
454.600	217.400	84.700	96.400	0.443
454.600	218.800	84.200	96.400	0.441
454.600	220.200	83.600	96.400	0.438
454.600	221.600	82.900	96.400	0.435
454.600	223.000	81.900	96.300	0.432
454.600	224.400	81.300	96.300	0.429
454.600	225.800	80.800	96.300	0.427
454.600	227.200	80.400	96.300	0.424
454.600	228.600	79.800	96.300	0.421
454.600	230.000	79.400	96.200	0.419
454.600	231.400	79.200	96.200	0.416
454.600	232.800	79.100	96.200	0.413
454.600	234.200	78.800	96.200	0.411
454.600	235.600	78.300	96.200	0.408
454.600	237.000	77.900	96.200	0.406
454.600	238.300	77.300	96.200	0.403
454.600	239.700	76.500	96.200	0.401
454.600	241.100	76.000	96.100	0.399
454.600	242.500	75.700	96.100	0.396
454.600	243.900	75.900	96.100	0.394
454.600	245.100	75.300	96.000	0.392
454.600	246.500	74.600	96.000	0.389
454.600	248.000	73.800	95.900	0.387
454.600	249.500	74.000	95.900	0.384
454.600	250.900	73.800	95.800	0.382
454.600	252.200	72.800	95.700	0.379
454.600	253.600	72.100	95.500	0.377
454.600	254.900	72.400	95.400	0.374
454.600	256.100	74.400	95.200	0.372
454.600	257.400	77.400	95.100	0.369
454.600	258.600	79.500	94.900	0.367
454.600	259.900	79.800	94.800	0.365
454.600	261.100	78.900	94.600	0.362
454.600	262.300	79.000	94.400	0.360
454.600	263.600	83.000	94.200	0.357
454.600	264.800	90.400	94.100	0.355
454.600	266.000	96.800	93.900	0.353
454.600	267.300	100.500	93.800	0.351
454.600	268.500	101.700	93.700	0.349
454.600	269.700	102.700	93.500	0.347
454.600	270.900	105.300	93.400	0.345
454.600	272.100	108.700	93.300	0.343
454.600	273.300	111.900	93.200	0.341
454.600	274.500	114.300	93.100	0.339
454.600	275.600	116.100	93.000	0.337
454.600	276.800	118.000	92.900	0.336
454.600	278.100	119.800	92.900	0.334
454.600	279.300	121.700	92.800	0.332
454.600	280.600	123.200	92.800	0.331
454.600	281.800	123.700	92.800	0.329
454.600	283.200	124.000	92.800	0.328
454.600	284.400	124.300	92.800	0.326
454.600	285.700	124.900	92.900	0.325
454.600	286.900	124.800	92.900	0.324
454.600	288.200	124.900	93.000	0.323
454.600	289.600	124.800	93.000	0.321
454.600	290.900	124.300	93.100	0.320
454.600	292.200	123.300	93.100	0.319
454.600	293.500	121.400	93.200	0.318
454.600	294.800	119.000	93.200	0.316
454.600	296.100	115.900	93.300	0.315
454.600	297.400	110.900	93.300	0.314
454.600	298.700	104.400	93.300	0.312
454.600	300.000	98.500	93.300	0.311
454.600	301.300	96.500	93.200	0.309
454.600	302.600	97.600	93.200	0.308
454.600	303.900	96.800	93.200	0.307
454.600	305.300	94.800	93.200	0.305
454.600	306.600	93.400	93.200	0.304
454.600	308.000	92.900	93.100	0.302
454.600	309.400	92.700	93.100	0.301
454.600	310.700	92.200	93.100	0.300
454.600	312.100	91.100	93.100	0.298
454.600	313.400	90.300	93.100	0.297
454.600	314.800	89.700	93.100	0.296
454.600	316.200	88.800	93.100	0.294
454.600	317.500	87.900	93.100	0.293
454.600	318.900	87.100	93.000	0.292
454.600	320.300	86.100	93.000	0.290
454.600	321.700	85.300	93.000	0.289
454.600	323.100	84.500	93.000	0.288
454.600	324.400	83.400	93.000	0.287
454.600	325.800	82.100	93.000	0.285
454.600	327.200	81.400	93.000	0.284
454.600	328.700	80.800	93.000	0.283
454.600	330.100	79.700	93.000	0.282
454.600	331.500	78.700	93.000	0.280
454.600	332.900	77.900	92.900	0.279
454.600	334.300	77.100	92.900	0.278
454.600	335.700	76.500	92.900	0.277
454.600	337.100	75.900	92.900	0.276
454.600	338.600	75.000	92.900	0.274
454.600	340.000	74.000	92.900	0.273
454.600	341.400	73.400	92.800	0.272
454.600	342.800	72.600	92.800	0.271
454.600	344.200	71.600	92.800	0.270
454.600	345.700	71.100	92.800	0.268
454.600	347.100	70.600	92.700	0.267
454.600	348.500	70.000	92.700	0.266
454.600	349.900	69.600	92.700	0.265
454.600	351.400	68.800	92.700	0.264
454.600	352.800	68.400	92.600	0.263
454.600	354.200	68.000	92.600	0.261
454.600	355.700	68.000	92.600	0.260
454.600	357.100	68.000	92.600	0.259
454.600	358.600	67.600	92.500	0.258
454.600	360.000	66.900	92.500	0.257
454.600	361.500	66.700	92.500	0.256
454.600	362.900	66.400	92.500	0.255
454.600	364.400	65.600	92.500	0.254
454.600	365.800	65.300	92.400	0.253
454.600	367.300	65.600	92.400	0.252
454.600	368.700	66.100	92.300	0.250
454.600	370.200	65.400	92.300	0.249
454.600	371.600	64.100	92.200	0.248
454.600	373.000	63.500	92.200	0.247
454.600	374.400	63.000	92.100	0.246
454.600	375.800	62.500	92.000	0.245
454.600	377.200	61.800	91.900	0.244
454.600	378.500	61.400	91.700	0.242
454.600	379.900	62.200	91.600	0.241
454.600	381.200	64.400	91.400	0.240
454.600	382.500	67.100	91.300	0.239
454.600	383.800	69.300	91.100	0.237
454.600	385.100	69.700	90.900	0.236
454.600	386.400	69.200	90.800	0.235
454.600	387.600	69.900	90.600	0.234
454.600	388.900	75.600	90.400	0.233
454.600	390.200	83.900	90.300	0.231
454.600	376.100	90.100	91.000	0.242
454.600	377.400	92.900	91.000	0.241
454.600	378.800	94.600	91.100	0.240
454.600	380.100	96.800	91.100	0.240
454.600	381.400	98.800	91.100	0.239
454.600	382.700	100.100	91.100	0.238
454.600	383.900	101.100	91.100	0.237
454.600	385.200	102.900	91.100	0.237
454.600	386.400	104.900	91.100	0.236
454.600	387.600	106.900	91.100	0.235
454.600	388.800	108.400	91.100	0.234
454.600	390.100	109.800	91.000	0.233
454.600	391.300	111.100	91.000	0.233
454.600	392.500	112.200	91.000	0.232
454.600	393.700	113.100	91.000	0.231
454.600	394.900	113.300	91.000	0.230
454.600	396.000	113.500	90.900	0.230
454.600	397.200	113.800	90.900	0.229
454.600	398.400	113.600	90.800	0.228
454.600	399.600	113.100	90.800	0.227
454.600	400.700	112.500	90.700	0.226
454.600	401.900	111.800	90.700	0.226
454.600	403.100	109.900	90.600	0.225
454.600	404.200	107.700	90.600	0.224
454.600	405.400	104.300	90.500	0.223
454.600	406.600	99.300	90.400	0.222
454.600	407.800	93.200	90.300	0.221
454.600	409.000	87.400	90.200	0.220
454.600	410.200	85.900	90.000	0.220
454.600	411.400	86.600	90.000	0.219
454.600	412.700	86.100	89.900	0.218
454.600	413.900	84.300	89.800	0.217
454.600	415.200	82.400	89.800	0.216
454.600	416.500	81.300	89.700	0.215
454.600	417.800	80.800	89.600	0.215
454.600	419.000	79.900	89.600	0.214
454.600	420.300	78.800	89.500	0.213
454.600	421.500	77.900	89.400	0.212
454.600	422.800	77.200	89.400	0.211
454.600	424.000	76.200	89.300	0.211
454.600	425.300	75.500	89.200	0.210
454.600	426.600	75.000	89.200	0.209
454.600	427.800	74.700	89.100	0.208
454.600	429.100	74.000	89.000	0.207
454.600	430.400	73.700	89.000	0.207
454.600	431.700	73.300	88.900	0.206
454.600	433.000	72.500	88.800	0.205
454.600	434.200	71.900	88.800	0.204
454.600	435.500	71.400	88.700	0.204
454.600	436.800	71.000	88.600	0.203
454.600	437.700	70.500	88.600	0.202
454.600	438.600	70.000	88.500	0.202
454.600	439.300	69.500	88.400	0.201
454.600	440.100	69.100	88.400	0.201
454.600	440.900	68.800	88.300	0.200
454.600	441.700	68.100	88.300	0.200
454.600	442.500	67.400	88.200	0.199
454.600	443.200	66.800	88.200	0.199
454.600	444.000	66.600	88.100	0.198
454.600	444.600	65.900	88.100	0.198
454.600	445.300	65.500	88.000	0.198
454.600	445.900	65.000	88.000	0.197
454.600	446.500	64.400	87.900	0.197
454.600	447.000	63.600	87.900	0.197
454.600	447.600	63.300	87.800	0.196
454.600	448.100	62.800	87.800	0.196
454.600	448.700	62.500	87.700	0.196
454.600	449.300	62.200	87.700	0.195
454.600	449.700	61.900	87.700	0.195
454.600	450.100	61.600	87.600	0.195
454.600	450.500	61.600	87.600	0.194
454.600	450.900	61.800	87.500	0.194
454.600	451.200	61.900	87.500	0.194
454.600	451.400	61.800	87.500	0.194
454.600	451.800	61.500	87.400	0.193
454.600	452.100	61.400	87.400	0.193
454.600	452.500	60.900	87.300	0.193
454.600	452.900	60.700	87.300	0.193
454.600	453.300	60.700	87.300	0.193
454.600	453.400	61.500	87.200	0.192
454.600	453.500	62.000	87.200	0.192
454.600	453.700	61.800	87.200	0.192
454.600	453.800	60.600	87.100	0.192
454.600	453.900	59.700	87.100	0.192
454.600	454.100	59.100	87.100	0.192
454.600	454.400	58.600	87.000	0.192
454.600	454.500	58.100	87.000	0.191
454.600	454.500	57.900	86.900	0.191
454.600	454.500	58.800	86.900	0.191
454.600	454.500	60.600	86.800	0.191
454.600	454.500	63.000	86.800	0.191
454.600	454.500	65.700	86.800	0.191
454.600	454.600	67.400	86.700	0.191
454.600	454.600	68.300	86.700	0.191
454.600	454.600	69.600	86.600	0.191
454.600	454.600	73.800	86.600	0.190
454.600	454.600	80.000	86.500	0.190
454.600	454.600	86.400	86.600	0.190
454.600	454.600	90.800	86.600	0.190
454.600	454.600	93.400	86.500	0.190
454.600	454.600	94.700	86.500	0.190
454.600	454.600	95.900	86.500	0.190
454.600	454.600	97.000	86.500	0.190
454.600	454.600	98.100	86.400	0.190
454.600	454.600	99.400	86.400	0.190
454.600	454.600	101.300	86.400	0.190
454.600	454.600	103.800	86.300	0.190
454.600	454.600	106.100	86.300	0.190
454.600	454.600	108.000	86.300	0.190
454.600	454.600	109.600	86.200	0.190
454.600	454.600	111.100	86.200	0.190
454.600	454.600	112.200	86.200	0.190
454.600	454.600	112.500	86.100	0.190
454.600	454.600	112.500	86.100	0.189
454.600	454.600	112.700	86.100	0.189
454.600	454.600	112.900	86.000	0.189
454.600	454.600	112.600	86.000	0.189
454.600	454.600	112.300	86.000	0.189
454.600	454.600	111.700	85.900	0.189
454.600	454.600	110.500	85.900	0.189
454.600	454.600	108.900	85.800	0.189
454.600	454.600	106.100	85.800	0.189
454.600	454.600	102.100	85.700	0.189
454.600	454.600	96.800	85.700	0.188
454.600	454.600	90.400	85.600	0.188
454.600	454.600	86.600	85.600	0.188
454.600	454.600	86.700	85.600	0.188
454.600	454.600	87.100	85.500	0.188
454.600	454.600	86.800	85.500	0.188
454.600	454.600	85.100	85.400	0.188
454.600	454.600	82.700	85.400	0.188
454.600	454.600	80.800	85.300	0.188
454.600	454.600	79.300	85.200	0.188
454.600	454.600	78.500	85.200	0.187
454.600	454.600	77.900	85.100	0.187
454.600	454.600	77.700	85.100	0.187
454.600	454.600	77.700	85.000	0.187
454.600	454.600	77.700	85.000	0.187
454.600	454.600	77.100	84.900	0.187
454.600	454.600	76.600	84.900	0.187
454.600	454.600	76.400	84.800	0.187
454.600	454.600	76.200	84.800	0.186
454.600	454.600	75.900	84.700	0.186
454.600	454.600	75.700	84.700	0.186
454.600	454.600	75.400	84.600	0.186
454.600	454.600	74.600	84.600	0.186
454.600	454.600	74.200	84.500	0.186
454.600	454.600	74.000	84.500	0.186
454.600	454.600	73.500	84.400	0.186
454.600	454.600	73.000	84.400	0.186
454.600	454.600	72.500	84.300	0.186
454.600	454.600	72.300	84.300	0.185
454.600	454.600	72.000	84.200	0.185
454.600	454.600	71.400	84.200	0.185
454.600	454.600	70.700	84.200	0.185
454.600	454.600	70.400	84.100	0.185
454.600	454.600	70.100	84.100	0.185
454.600	454.600	69.900	84.000	0.185
454.600	454.600	69.600	84.000	0.185
454.600	454.600	69.200	84.000	0.185
454.600	454.600	69.300	83.900	0.185
454.600	454.600	68.900	83.900	0.185
454.600	454.600	68.500	83.900	0.184
454.600	454.600	68.200	83.800	0.184
454.600	454.600	68.100	83.800	0.184
454.600	454.600	67.800	83.800	0.184
454.600	454.600	67.400	83.700	0.184
454.600	454.600	67.500	83.700	0.184
454.600	454.600	67.800	83.700	0.184
454.600	454.600	67.600	83.600	0.184
454.600	454.600	66.600	83.600	0.184
454.600	454.600	66.100	83.600	0.184
454.600	454.600	66.000	83.500	0.184
454.600	454.600	65.300	83.500	0.184
454.600	454.600	64.700	83.500	0.184
454.600	454.600	64.500	83.500	0.184
454.600	454.600	65.800	83.400	0.184
454.600	454.600	68.300	83.400	0.184
454.600	454.600	71.000	83.400	0.183
454.600	454.600	73.100	83.400	0.183
454.600	454.600	74.100	83.400	0.183
454.600	454.600	74.900	83.400	0.183
454.600	454.600	76.900	83.300	0.183
454.600	454.600	81.700	83.400	0.183
454.600	454.600	88.200	83.400	0.183
454.600	454.600	93.200	83.200	0.183
454.600	454.600	96.100	83.200	0.183
454.600	454.600	98.100	83.200	0.183
454.600	454.600	99.800	83.100	0.183
454.600	454.600	101.800	83.100	0.183
454.600	454.600	103.500	83.000	0.183
454.600	454.600	105.000	83.000	0.183
454.600	454.600	106.700	83.000	0.183
454.600	454.600	108.400	82.900	0.182
454.600	454.600	109.900	82.900	0.182
454.600	454.600	111.300	82.800	0.182
454.600	454.600	113.000	82.800	0.182
454.600	454.600	114.400	82.800	0.182
454.600	454.600	115.300	82.700	0.182
454.600	454.600	115.600	82.700	0.182
454.600	454.600	116.100	82.700	0.182
454.600	454.600	116.500	82.600	0.182
454.600	454.600	116.400	82.600	0.182
454.600	454.600	116.200	82.600	0.182
454.600	454.600	115.700	82.600	0.182
454.600	454.600	114.800	82.500	0.182
454.600	454.600	113.400	82.500	0.182
454.600	454.600	111.400	82.500	0.181
454.600	454.600	108.600	82.500	0.181
454.600	454.600	104.000	82.500	0.181
454.600	454.600	97.900	82.500	0.181
454.600	454.600	91.900	82.500	0.181
454.600	454.600	88.900	82.400	0.181
454.600	454.600	88.500	82.400	0.181
454.600	454.600	87.700	82.400	0.181
454.600	454.600	86.000	82.300	0.181
454.600	454.600	84.500	82.300	0.181
454.600	454.600	83.200	82.300	0.181
454.600	454.600	82.700	82.200	0.181
454.600	454.600	82.200	82.200	0.181
454.600	454.600	81.300	82.200	0.181
454.600	454.600	80.700	82.200	0.181
454.600	454.600	80.200	82.100	0.181
454.600	454.600	79.700	82.100	0.181
454.600	454.600	78.900	82.100	0.181
454.600	454.600	78.600	82.000	0.180
454.600	454.600	78.200	82.000	0.180
454.600	454.600	77.500	82.000	0.180
454.600	454.600	77.000	82.000	0.180
454.600	454.600	76.600	81.900	0.180
454.600	454.600	75.800	81.900	0.180
454.600	454.600	75.000	81.900	0.180
454.600	454.600	74.800	81.900	0.180
447.400	454.600	74.300	81.900	0.180
438.000	454.500	73.500	81.800	0.180
429.900	454.400	73.100	81.800	0.180
419.300	454.300	72.600	81.800	0.180
408.200	454.100	71.900	81.800	0.180
400.100	453.900	71.400	81.800	0.180
392.000	453.700	70.900	81.800	0.180
381.300	453.400	70.100	81.800	0.180
371.900	453.100	69.700	81.800	0.180
364.900	452.800	69.500	81.800	0.181
356.600	452.400	68.700	81.700	0.181
346.600	452.000	68.000	81.700	0.181
338.600	451.600	67.600	81.700	0.181
331.900	451.200	67.400	81.700	0.181
324.000	450.700	67.100	81.700	0.181
314.900	450.200	66.900	81.700	0.181
307.900	449.700	66.400	81.700	0.182
301.800	449.100	66.000	81.700	0.182
294.700	448.500	65.700	81.700	0.182
286.700	447.900	65.200	81.700	0.182
279.800	447.300	64.700	81.700	0.183
274.400	446.600	64.500	81.700	0.183
268.300	446.000	64.400	81.700	0.183
261.200	445.300	64.400	81.600	0.183
254.300	444.500	64.600	81.600	0.184
248.900	443.800	64.900	81.600	0.184
243.700	443.000	64.300	81.600	0.184
238.000	442.200	63.600	81.600	0.185
232.100	441.400	63.300	81.600	0.185
226.000	440.600	63.200	81.600	0.185
220.300	439.800	63.100	81.600	0.186
215.200	438.900	62.700	81.600	0.186
210.800	438.000	63.500	81.600	0.186
205.700	437.100	66.200	81.700	0.187
204.400	436.200	68.900	81.700	0.187
198.600	435.300	71.400	81.700	0.188
190.000	434.300	73.300	81.700	0.188
185.900	433.300	74.300	81.700	0.189
185.700	432.400	76.400	81.800	0.189
180.200	431.400	82.100	81.800	0.190
178.200	429.300	88.500	81.200	0.189
177.400	428.200	93.200	81.200	0.190
176.100	427.200	96.400	81.100	0.190
173.700	426.100	98.600	81.100	0.190
172.700	425.000	100.600	81.000	0.191
170.500	424.000	102.600	81.000	0.191
169.700	422.900	104.300	81.000	0.191
169.100	421.800	105.300	80.900	0.192
167.600	420.700	106.700	80.900	0.192
166.300	419.600	108.600	80.900	0.193
165.400	418.500	110.300	80.900	0.193
165.200	417.400	112.300	80.900	0.194
164.100	416.300	114.000	80.900	0.194
163.200	415.200	115.200	80.900	0.195
162.600	414.100	116.300	80.900	0.195
162.100	413.000	116.700	81.000	0.196
161.500	411.900	117.300	81.100	0.197
160.800	410.800	117.300	81.200	0.198
159.800	409.700	117.400	81.300	0.198
159.000	408.600	117.600	81.400	0.199
158.400	407.400	117.000	81.500	0.200
158.400	406.300	116.100	81.600	0.201
158.400	405.200	114.900	81.700	0.202
157.600	404.100	112.800	81.800	0.203
156.400	402.900	109.500	82.000	0.203
155.100	401.800	104.700	82.000	0.204
153.600	400.700	98.500	82.100	0.205
151.800	399.500	92.500	82.200	0.206
150.200	398.400	89.400	82.200	0.206
149.200	397.200	89.000	82.300	0.207
148.400	396.000	88.400	82.300	0.208
147.500	394.900	87.200	82.300	0.209
146.200	393.700	85.600	82.400	0.209
145.300	392.500	84.400	82.400	0.210
144.300	391.400	83.300	82.500	0.211
143.400	390.200	82.000	82.500	0.211
142.300	389.000	81.400	82.500	0.212
141.300	387.800	80.900	82.600	0.213
140.300	386.600	80.300	82.600	0.214
139.300	385.400	79.600	82.600	0.214
138.300	384.200	79.600	82.600	0.215
137.200	383.000	79.100	82.700	0.216
136.200	381.800	78.600	82.700	0.217
135.300	380.600	78.300	82.700	0.217
134.300	379.400	78.100	82.800	0.218
133.300	378.200	77.700	82.800	0.219
132.300	377.000	77.200	82.800	0.220
131.300	375.700	76.900	82.900	0.221
130.300	374.500	76.000	82.900	0.221
129.200	373.300	75.400	83.000	0.222
128.200	372.000	75.100	83.000	0.223
127.100	370.800	74.900	83.000	0.224
126.200	369.600	74.400	83.100	0.225
125.100	368.300	74.000	83.100	0.226
124.100	367.100	73.200	83.100	0.226
123.200	365.800	72.700	83.200	0.227
122.200	364.500	72.400	83.200	0.228
121.200	363.300	71.700	83.200	0.229
120.200	362.000	71.100	83.300	0.230
119.200	360.700	71.000	83.300	0.231
118.300	359.500	70.600	83.300	0.232
117.400	358.200	70.300	83.400	0.233
116.500	356.900	70.200	83.400	0.234
115.600	355.600	70.200	83.400	0.235
114.900	354.300	69.800	83.500	0.236
114.000	353.000	69.400	83.500	0.237
113.100	351.800	68.900	83.500	0.237
112.300	350.500	68.500	83.600	0.238
111.500	349.200	68.000	83.600	0.239
110.700	347.900	67.900	83.600	0.240
109.800	346.500	68.200	83.600	0.241
109.100	345.200	68.200	83.700	0.242
108.300	343.900	68.300	83.700	0.243
107.400	342.600	68.600	83.700	0.244
106.700	341.300	67.900	83.700	0.245
105.900	340.000	67.200	83.800	0.246
105.200	338.700	67.000	83.800	0.247
104.500	337.300	66.600	83.800	0.249
103.800	336.000	66.500	83.900	0.250
103.100	334.700	67.200	83.900	0.251
102.300	333.300	69.600	83.900	0.252
101.800	332.000	72.500	84.000	0.253
101.300	330.700	75.900	84.000	0.254
100.900	329.300	78.000	84.100	0.255
100.300	328.000	79.200	84.100	0.256
99.800	326.600	81.100	84.100	0.258
100.100	325.300	85.000	84.200	0.259
101.000	323.900	90.500	84.200	0.260
102.000	322.600	95.500	84.300	0.261
103.200	321.300	99.300	84.300	0.262
104.300	320.000	102.100	84.300	0.264
105.500	318.600	104.200	84.400	0.265
107.400	317.300	106.500	84.400	0.266
110.500	316.000	108.600	84.400	0.267
114.200	314.700	109.800	84.500	0.268
117.100	313.400	111.100	84.500	0.270
120.300	312.200	112.900	84.600	0.271
123.300	310.900	114.900	84.600	0.272
126.600	309.700	116.500	84.700	0.273
128.700	308.400	117.700	84.700	0.275
130.200	307.200	118.800	84.700	0.276
131.800	306.000	119.600	84.800	0.277
132.600	304.800	120.300	84.800	0.278
132.700	303.600	120.600	84.800	0.279
132.700	302.300	120.800	84.800	0.281
132.600	301.100	120.700	84.900	0.282
132.400	299.900	120.600	84.900	0.283
131.700	298.700	119.800	84.900	0.284
131.300	297.500	119.100	85.000	0.286
130.600	296.200	117.700	85.000	0.287
129.400	295.000	115.200	85.000	0.288
127.600	293.800	111.600	85.000	0.289
124.600	292.500	106.600	85.000	0.291
119.800	291.200	100.500	85.000	0.292
113.800	289.900	94.500	85.000	0.293
111.100	288.600	91.900	85.000	0.294
110.200	287.300	91.400	85.000	0.296
108.800	286.000	90.200	85.000	0.297
108.700	284.700	88.500	85.000	0.299
109.300	283.400	86.500	85.000	0.300
110.600	282.100	85.200	85.000	0.301
111.600	280.800	84.000	85.000	0.303
112.300	279.500	83.100	85.100	0.304
112.400	278.200	82.400	85.100	0.306
112.000	276.900	81.800	85.100	0.307
111.400	275.600	81.200	85.100	0.309
110.300	274.300	80.700	85.100	0.310
109.000	273.000	80.000	85.100	0.312
107.700	271.700	79.300	85.100	0.313
106.400	270.400	78.700	85.100	0.315
105.300	269.000	78.200	85.100	0.316
104.100	267.700	77.800	85.100	0.318
103.200	266.400	77.100	85.100	0.320
102.300	265.100	76.300	85.100	0.321
101.500	263.700	75.800	85.100	0.323
100.600	262.400	75.200	85.100	0.324
99.700	261.000	74.900	85.100	0.326
98.700	259.700	74.300	85.100	0.328
97.900	258.300	73.600	85.100	0.330
97.000	257.000	73.100	85.100	0.331
96.000	255.600	72.300	85.100	0.333
95.200	254.300	71.900	85.100	0.335
94.500	252.900	71.300	85.100	0.337
93.500	251.500	70.800	85.100	0.338
92.700	250.200	70.400	85.100	0.340
91.800	248.800	69.800	85.100	0.342
90.900	247.400	69.100	85.100	0.344
90.100	246.000	68.400	85.100	0.346
89.300	244.600	68.300	85.100	0.348
96.300	243.300	68.100	85.100	0.350
105.100	242.000	67.800	85.100	0.352
107.100	240.600	67.300	85.100	0.354
107.800	239.300	67.000	85.100	0.355
109.600	238.000	66.800	85.100	0.357
109.000	236.700	66.000	85.100	0.359
107.100	235.400	65.600	85.000	0.361
105.800	234.100	65.300	85.000	0.363
104.500	232.700	65.100	85.000	0.365
103.700	231.400	65.400	85.000	0.367
103.200	230.100	65.800	85.000	0.369
102.500	228.800	66.100	85.000	0.372
101.800	227.400	65.200	85.000	0.374
100.900	226.100	64.500	85.000	0.376
100.200	224.700	64.300	85.000	0.378
99.500	223.400	63.800	85.000	0.380
98.800	222.000	63.700	85.000	0.383
98.100	220.700	63.500	85.000	0.385
97.400	219.300	64.900	85.000	0.387
96.700	218.000	67.800	85.000	0.390
96.200	216.600	70.900	85.000	0.392
95.800	215.300	74.500	85.000	0.395
95.400	213.900	77.000	85.000	0.397
94.900	212.500	78.600	85.000	0.400
94.800	211.200	81.400	85.000	0.403
95.600	209.800	86.400	85.000	0.405
96.900	208.500	92.000	85.100	0.408
98.500	207.100	96.700	85.100	0.411
100.700	205.800	100.100	85.100	0.413
102.900	204.400	102.900	85.100	0.416
106.200	203.100	105.100	85.100	0.419
109.600	201.800	106.600	85.100	0.422
113.900	200.500	108.200	85.200	0.425
118.000	199.300	109.900	85.200	0.427
121.400	198.000	111.200	85.200	0.430
124.100	196.700	112.600	85.200	0.433
126.700	195.500	114.100	85.200	0.436
128.900	194.300	115.800	85.200	0.439
130.000	193.000	117.100	85.300	0.442
130.800	191.800	118.200	85.300	0.445
131.900	190.600	119.300	85.300	0.447
132.500	189.400	119.900	85.300	0.450
132.900	188.100	120.200	85.300	0.453
133.100	186.900	120.100	85.300	0.456
133.100	185.700	120.200	85.300	0.460
133.200	184.500	119.900	85.400	0.463
132.900	183.300	119.600	85.400	0.466
132.100	182.100	118.700	85.400	0.469
131.400	180.800	116.900	85.400	0.472
129.800	179.600	114.300	85.400	0.476
127.300	178.400	110.200	85.400	0.479
123.300	177.100	104.500	85.400	0.482
117.800	175.800	97.900	85.400	0.486
112.600	174.500	92.700	85.400	0.489
111.500	173.200	91.100	85.400	0.493
109.300	171.900	89.900	85.400	0.497
108.900	170.600	88.400	85.400	0.501
110.400	169.300	86.400	85.400	0.505
112.000	168.000	84.300	85.400	0.509
112.700	166.700	82.400	85.400	0.512
113.900	165.400	80.900	85.400	0.516
114.600	164.100	79.800	85.400	0.520
114.300	162.900	78.900	85.400	0.524
113.500	161.600	78.100	85.400	0.529
112.600	160.300	77.500	85.400	0.533
111.400	159.000	76.900	85.400	0.537
109.800	157.700	76.400	85.400	0.542
108.500	156.300	75.700	85.400	0.546
107.500	155.000	75.300	85.400	0.551
106.400	153.700	74.700	85.300	0.555
105.300	152.400	74.400	85.300	0.560
104.400	151.100	73.800	85.300	0.565
103.600	149.700	73.200	85.300	0.570
102.600	148.400	72.600	85.300	0.575
101.700	147.100	72.200	85.300	0.580
100.900	145.800	71.700	85.300	0.585
99.900	144.500	71.400	85.300	0.590
99.000	143.200	70.900	85.300	0.595
98.000	142.000	70.600	85.300	0.600
97.100	140.800	70.400	85.300	0.605
96.300	139.700	69.900	85.200	0.610
95.500	138.500	69.500	85.200	0.615
94.700	137.500	69.200	85.200	0.620
94.000	136.400	68.600	85.200	0.625
93.200	135.400	68.700	85.200	0.630
92.700	134.400	68.800	85.200	0.634
92.200	133.400	68.500	85.200	0.639
91.900	132.500	68.200	85.200	0.643
91.700	131.600	68.000	85.200	0.648
91.600	130.700	68.000	85.200	0.652
91.200	129.800	68.000	85.200	0.657
91.100	129.000	67.900	85.200	0.661
90.900	128.200	67.700	85.300	0.665
90.600	127.500	67.600	85.300	0.669
89.900	126.700	67.800	85.300	0.673
89.200	126.000	68.200	85.300	0.677
88.700	125.300	68.600	85.300	0.681
88.100	124.600	68.700	85.300	0.685
87.400	123.900	67.900	85.300	0.688
86.900	123.300	67.200	85.300	0.692
86.200	122.700	66.800	85.300	0.696
85.600	122.100	66.100	85.400	0.699
85.000	121.500	66.000	85.400	0.703
84.500	121.000	67.200	85.400	0.706
84.200	120.400	70.000	85.400	0.709
84.000	119.900	73.400	85.400	0.713
84.800	119.400	77.200	85.500	0.716
85.400	118.900	80.200	85.600	0.719
85.400	118.500	83.000	85.600	0.723
86.100	117.200	84.900	85.800	0.732
89.300	116.800	88.200	85.900	0.735
94.500	116.500	93.300	85.900	0.738
100.400	116.200	98.400	86.000	0.740
107.000	115.900	102.600	86.000	0.742
112.900	115.700	105.700	86.000	0.744
118.500	115.500	108.100	86.100	0.745
123.300	115.300	110.100	86.100	0.747
127.000	115.100	111.800	86.100	0.748
128.900	115.000	113.200	86.200	0.750
130.100	114.800	114.700	86.200	0.751
131.000	114.700	116.500	86.200	0.752
131.100	114.500	118.400	86.300	0.753
132.100	114.400	120.000	86.300	0.755
132.900	114.300	121.700	86.400	0.756
133.900	114.200	122.800	86.400	0.757
135.100	114.100	124.000	86.400	0.758
136.600	114.000	124.800	86.500	0.759
137.700	113.900	125.200	86.500	0.760
138.600	113.800	125.500	86.500	0.760
139.300	113.700	125.800	86.600	0.761
139.800	113.600	126.000	86.600	0.762
140.000	113.500	125.700	86.600	0.763
139.500	113.500	125.200	86.600	0.764
138.800	113.400	123.900	86.700	0.764
137.400	113.300	122.100	86.700	0.765
135.600	113.200	119.100	86.700	0.766
132.300	113.100	114.500	86.700	0.767
127.700	113.000	108.200	86.800	0.768
121.400	112.900	101.500	86.800	0.769
117.500	112.800	96.800	86.800	0.770
116.000	112.600	95.200	86.800	0.771
115.000	112.500	93.900	86.800	0.772
115.000	112.400	92.100	86.800	0.773
116.100	112.300	90.000	86.900	0.774
117.300	112.200	87.600	86.900	0.775
118.500	112.100	85.700	86.900	0.775
119.300	112.000	84.200	86.900	0.776
119.300	111.900	83.200	86.900	0.777
118.700	111.800	82.700	86.900	0.777
118.000	111.700	82.000	86.900	0.778
116.800	111.600	81.100	86.900	0.779
115.300	111.500	80.400	86.900	0.779
113.700	111.400	80.200	86.900	0.780
112.300	111.300	79.600	86.900	0.781
111.100	111.200	78.900	86.900	0.781
109.900	111.100	78.400	86.900	0.782
108.700	111.000	78.000	86.900	0.783
107.800	110.900	77.800	86.900	0.783
106.900	110.800	77.000	86.900	0.784
106.000	110.700	76.100	86.900	0.785
105.000	110.600	75.900	86.900	0.785
104.000	110.500	75.300	86.900	0.786
103.100	110.400	74.700	86.900	0.787
102.000	110.300	74.300	86.900	0.787
101.100	110.200	73.600	86.900	0.788
100.200	110.200	73.000	86.900	0.789
99.300	110.100	72.600	86.900	0.789
98.500	110.000	72.200	86.900	0.790
97.600	109.900	71.900	86.900	0.791
96.800	109.800	71.600	86.900	0.791
96.300	109.700	71.500	86.900	0.792
95.700	109.600	71.300	86.900	0.793
95.400	109.500	71.200	86.900	0.793
95.000	109.400	70.700	86.900	0.794
94.600	109.300	70.100	86.900	0.795
94.400	109.300	69.800	86.900	0.795
94.000	109.200	69.900	86.900	0.796
93.200	109.100	69.500	86.900	0.796
92.300	109.000	69.700	86.900	0.797
91.800	108.900	70.000	86.900	0.798
91.000	108.900	70.100	86.900	0.798
90.200	108.800	70.200	86.900	0.799
89.600	108.700	69.900	86.900	0.800
89.100	108.600	69.200	86.900	0.800
88.800	108.500	68.800	86.900	0.801
88.400	108.500	68.500	86.900	0.801
87.900	108.400	68.200	86.900	0.802
87.400	108.300	68.600	86.900	0.802
87.000	108.300	70.500	86.900	0.803
86.800	108.200	74.000	87.000	0.804
87.200	108.100	78.100	87.000	0.805
87.900	108.100	81.700	87.100	0.806
88.200	108.000	84.700	87.100	0.807
97.100	108.000	86.900	87.200	0.807
102.700	108.000	90.400	87.200	0.808
106.100	108.000	95.600	87.300	0.808
109.000	108.100	100.300	87.400	0.809
115.100	108.100	104.200	87.500	0.809
119.000	108.200	107.600	87.600	0.809
119.400	108.300	110.500	87.600	0.809
121.300	108.300	113.000	87.700	0.810
124.900	108.400	115.200	87.800	0.809
127.700	108.500	116.600	87.800	0.809
129.500	108.600	118.300	87.900	0.809
131.700	108.700	120.300	87.900	0.809
134.300	108.800	122.200	88.000	0.809
136.700	108.900	123.600	88.000	0.809
137.900	109.000	125.200	88.100	0.808
139.400	109.000	126.500	88.100	0.808
141.400	109.100	127.400	88.200	0.808
142.400	109.200	128.100	88.200	0.808
143.000	109.200	128.900	88.300	0.808
143.600	109.300	129.400	88.300	0.808
144.200	109.300	129.800	88.400	0.808
144.100	109.400	129.900	88.400	0.808
143.800	109.400	129.200	88.400	0.808
143.300	109.400	128.200	88.500	0.808
142.600	109.500	127.200	88.500	0.808
141.300	109.500	125.500	88.500	0.808
139.600	109.500	122.600	88.500	0.808
136.900	109.600	118.800	88.500	0.808
132.700	109.600	113.400	88.500	0.808
126.700	109.600	106.400	88.500	0.807
120.800	109.500	100.200	88.400	0.807
119.300	109.500	97.100	88.400	0.807
117.800	109.500	95.300	88.400	0.807
117.200	109.500	93.600	88.400	0.807
117.300	109.500	91.800	88.300	0.807
119.200	109.600	89.900	88.300	0.806
120.700	109.600	88.100	88.300	0.806
121.200	109.700	86.500	88.300	0.805
121.600	109.700	85.300	88.300	0.805
121.300	109.800	84.400	88.300	0.805
120.600	109.800	83.400	88.300	0.804
119.300	109.800	82.400	88.300	0.804
117.900	109.800	81.700	88.300	0.804
116.400	109.900	81.200	88.300	0.804
114.700	109.900	80.600	88.300	0.804
113.300	109.900	79.800	88.300	0.804
112.000	109.900	79.100	88.300	0.804
110.800	109.900	78.500	88.300	0.803
109.600	109.900	77.900	88.300	0.803
108.500	109.900	77.200	88.300	0.803
107.400	109.900	76.300	88.300	0.803
106.400	110.000	75.700	88.300	0.803
105.300	110.000	75.100	88.300	0.803
104.300	110.000	74.700	88.300	0.803
103.400	110.000	74.400	88.300	0.803
102.400	110.000	73.800	88.300	0.802
101.500	110.000	73.600	88.300	0.802
100.700	110.000	73.200	88.300	0.802
99.700	110.000	72.400	88.300	0.802
98.900	110.000	72.500	88.300	0.802
98.300	110.100	72.200	88.300	0.802
97.500	110.100	71.700	88.300	0.802
96.800	110.100	71.700	88.300	0.802
96.400	110.100	71.400	88.300	0.802
96.200	110.100	70.900	88.300	0.802
95.700	110.100	70.400	88.300	0.802
95.400	110.100	70.100	88.300	0.802
95.100	110.200	69.700	88.300	0.801
94.600	110.200	69.200	88.300	0.802
93.700	110.100	69.400	88.300	0.802
93.000	110.100	69.900	88.300	0.802
92.200	110.000	70.400	88.300	0.803
91.300	109.900	70.800	88.300	0.804
90.500	109.900	70.000	88.400	0.804
89.800	109.800	69.300	88.400	0.805
89.100	109.700	68.900	88.400	0.805
88.700	109.700	68.500	88.400	0.806
88.200	109.600	67.800	88.400	0.807
88.000	109.600	68.300	88.400	0.807
101.800	109.600	70.400	88.400	0.807
103.900	109.600	73.900	88.500	0.807
105.400	109.600	78.100	88.500	0.808
106.600	109.600	81.800	88.600	0.808
108.400	109.600	84.500	88.700	0.809
107.400	110.000	87.200	89.200	0.811
105.600	110.000	90.600	89.200	0.811
106.100	110.100	95.400	89.300	0.811
108.100	110.100	100.200	89.400	0.811
109.800	110.200	103.900	89.400	0.812
112.000	110.200	107.500	89.400	0.812
114.500	110.300	110.400	89.500	0.811
118.000	110.300	112.800	89.500	0.811
121.900	110.400	114.800	89.600	0.811
125.400	110.500	116.600	89.600	0.811
128.800	110.500	118.300	89.600	0.811
132.700	110.600	119.900	89.700	0.811
135.000	110.600	121.400	89.700	0.811
137.600	110.700	122.900	89.800	0.811
139.400	110.700	124.400	89.800	0.811
140.700	110.800	125.500	89.800	0.811
141.400	110.800	126.500	89.900	0.811
142.100	110.900	127.200	89.900	0.811
142.800	110.900	127.700	89.900	0.811
142.700	110.900	128.100	90.000	0.811
142.400	111.000	128.300	90.000	0.811
142.500	111.000	128.000	90.000	0.811
142.700	111.100	127.400	90.100	0.811
142.300	111.100	126.900	90.100	0.811
141.900	111.100	125.900	90.100	0.811
141.000	111.200	124.300	90.100	0.811
139.400	111.200	121.500	90.200	0.811
136.300	111.200	117.000	90.200	0.811
131.900	111.200	111.400	90.200	0.811
125.300	111.200	104.300	90.200	0.811
119.300	111.200	97.700	90.200	0.811
117.700	111.300	94.500	90.200	0.810
116.200	111.300	92.700	90.200	0.810
116.100	111.300	90.900	90.200	0.810
116.300	111.300	89.200	90.200	0.810
118.700	111.400	87.400	90.200	0.810
120.600	111.400	85.500	90.200	0.810
121.100	111.400	84.000	90.200	0.809
121.000	111.500	82.100	90.200	0.809
121.000	111.500	80.500	90.200	0.809
119.800	111.500	79.600	90.200	0.809
119.000	111.500	78.900	90.200	0.809
116.700	111.600	77.700	90.200	0.809
115.300	111.600	76.800	90.200	0.809
113.600	111.600	76.400	90.200	0.809
111.900	111.600	76.000	90.200	0.808
110.400	111.600	75.200	90.200	0.808
109.400	111.600	74.600	90.200	0.808
108.200	111.600	73.700	90.200	0.808
107.100	111.600	73.000	90.200	0.808
106.200	111.700	72.700	90.200	0.808
105.200	111.700	71.800	90.200	0.808
104.100	111.700	71.100	90.200	0.808
103.100	111.700	71.000	90.200	0.808
102.100	111.700	70.600	90.200	0.808
101.100	111.700	70.100	90.200	0.808
100.100	111.700	69.700	90.200	0.807
99.200	111.700	69.200	90.200	0.807
98.400	111.700	68.800	90.200	0.807
97.700	111.700	68.200	90.200	0.807
97.000	111.700	68.100	90.200	0.807
96.500	111.700	68.100	90.200	0.807
96.000	111.800	68.000	90.200	0.807
95.600	111.800	67.400	90.200	0.807
94.900	111.800	66.900	90.200	0.807
94.400	111.800	66.600	90.200	0.806
94.000	111.800	66.400	90.100	0.806
93.300	111.800	66.400	90.100	0.806
92.400	111.800	66.500	90.100	0.806
91.900	111.800	67.000	90.100	0.806
91.100	111.800	67.800	90.100	0.806
90.400	111.800	67.800	90.100	0.806
89.700	111.800	67.200	90.100	0.806
89.200	111.800	66.500	90.100	0.806
88.600	111.800	65.900	90.100	0.806
88.000	111.800	65.500	90.100	0.806
87.600	111.800	65.300	90.100	0.806
87.200	111.800	65.600	90.100	0.806
86.800	111.800	68.000	90.100	0.806
86.700	111.800	72.200	90.100	0.806
94.400	111.900	76.600	90.200	0.806
101.700	111.900	80.400	90.200	0.806
103.300	112.000	83.700	90.300	0.806
104.000	112.400	86.500	90.400	0.805
107.200	112.500	90.200	90.400	0.804
108.800	112.600	95.300	90.500	0.804
109.400	112.600	100.300	90.500	0.804
111.200	112.700	104.500	90.500	0.804
112.900	112.700	108.300	90.600	0.804
116.100	112.700	111.600	90.600	0.804
120.800	112.700	113.500	90.600	0.804
125.000	112.700	114.900	90.600	0.804
128.500	112.700	116.400	90.600	0.804
131.900	112.700	118.100	90.700	0.804
135.300	112.800	119.900	90.700	0.804
137.600	112.800	121.800	90.700	0.804
139.600	112.800	123.400	90.700	0.804
141.100	112.800	125.400	90.700	0.804
142.200	112.900	126.700	90.800	0.804
143.300	112.900	127.800	90.800	0.804
144.200	113.000	128.700	90.800	0.804
144.900	113.000	129.400	90.800	0.804
145.200	113.000	129.900	90.800	0.804
145.600	113.000	130.000	90.900	0.804
145.900	113.100	130.000	90.900	0.804
145.800	113.100	129.600	90.900	0.804
145.400	113.100	129.200	90.900	0.804
144.700	113.100	128.400	90.900	0.803
143.700	113.200	126.700	90.900	0.803
141.900	113.200	124.300	90.900	0.803
139.200	113.200	120.300	90.900	0.803
134.700	113.200	114.600	90.900	0.803
128.400	113.200	107.500	90.900	0.803
122.200	113.200	100.800	90.900	0.803
120.500	113.200	97.500	90.900	0.803
118.700	113.200	95.400	90.900	0.803
118.500	113.200	93.400	90.900	0.803
119.000	113.300	91.200	90.900	0.803
120.700	113.300	88.900	90.900	0.803
122.200	113.300	86.500	90.900	0.802
123.300	113.300	84.700	90.900	0.802
123.500	113.300	83.400	90.900	0.802
123.200	113.400	82.500	90.900	0.802
122.400	113.400	81.700	90.900	0.802
121.000	113.400	80.500	90.900	0.802
119.300	113.400	79.400	90.900	0.802
117.600	113.400	78.900	90.900	0.801
115.900	113.400	78.200	90.900	0.801
114.200	113.400	77.600	90.900	0.801
112.800	113.400	77.000	90.900	0.801
111.500	113.400	76.500	90.900	0.801
110.200	113.400	75.800	90.800	0.801
109.100	113.400	74.800	90.800	0.801
108.100	113.400	74.100	90.800	0.801
107.100	113.400	73.800	90.800	0.800
105.900	113.400	73.400	90.800	0.800
104.900	113.500	73.100	90.800	0.800
104.000	113.500	72.800	90.800	0.800
103.000	113.500	71.900	90.800	0.800
102.100	113.500	71.400	90.800	0.800
101.100	113.500	71.000	90.800	0.800
100.200	113.500	70.300	90.800	0.800
99.400	113.500	70.000	90.700	0.800
98.700	113.500	70.000	90.700	0.800
98.200	113.500	69.900	90.700	0.799
97.700	113.500	69.900	90.700	0.799
97.200	113.500	69.500	90.700	0.799
96.700	113.500	69.200	90.700	0.799
96.300	113.500	68.700	90.700	0.799
95.900	113.500	68.300	90.700	0.799
95.300	113.500	68.100	90.700	0.799
94.400	113.500	68.200	90.700	0.799
93.600	113.500	68.600	90.700	0.799
92.800	113.500	69.500	90.700	0.799
92.100	113.500	69.700	90.700	0.799
91.400	113.500	69.200	90.700	0.799
90.800	113.500	68.700	90.700	0.799
90.300	113.500	68.600	90.700	0.799
89.800	113.500	68.200	90.700	0.798
89.200	113.500	67.800	90.600	0.798
88.700	113.500	67.700	90.600	0.798
88.500	113.500	68.900	90.600	0.798
88.200	113.500	72.100	90.700	0.799
88.400	113.500	76.400	90.700	0.799
89.200	113.600	80.700	90.700	0.799
89.600	113.600	84.300	90.700	0.799
89.600	113.800	87.200	90.800	0.798
92.400	113.700	90.800	90.800	0.798
98.100	113.700	95.600	90.800	0.798
104.100	113.600	100.300	90.700	0.799
111.200	113.600	104.300	90.700	0.799
117.700	113.600	107.800	90.700	0.799
123.300	113.600	110.800	90.700	0.798
128.200	113.600	113.500	90.700	0.798
132.800	113.600	116.000	90.700	0.798
135.500	113.700	117.700	90.700	0.798
137.000	113.700	119.400	90.700	0.798
138.000	113.700	121.100	90.700	0.798
138.900	113.700	123.300	90.700	0.798
140.400	113.700	125.200	90.700	0.797
141.400	113.700	126.700	90.700	0.797
142.100	113.700	128.000	90.700	0.797
143.100	113.700	128.900	90.700	0.797
144.100	113.700	129.900	90.700	0.797
144.900	113.700	130.300	90.700	0.797
145.300	113.800	130.500	90.700	0.797
146.200	113.800	130.900	90.700	0.797
146.400	113.800	130.900	90.700	0.797
146.700	113.800	130.700	90.700	0.797
146.400	113.800	130.100	90.700	0.797
146.000	113.800	129.000	90.800	0.797
145.000	113.800	127.300	90.800	0.797
143.100	113.900	125.000	90.800	0.797
140.200	113.900	121.100	90.800	0.797
136.200	113.900	116.100	90.900	0.798
129.900	114.000	109.500	90.900	0.798
123.200	114.000	102.800	90.900	0.798
121.200	114.000	98.200	90.900	0.798
119.300	114.000	95.700	90.900	0.798
118.800	114.000	93.700	91.000	0.798
118.600	114.000	91.400	91.000	0.798
120.500	114.000	89.400	91.000	0.798
122.100	114.000	87.400	91.000	0.798
122.800	114.000	85.700	91.000	0.798
123.000	114.000	84.300	91.000	0.798
123.000	114.000	83.100	91.000	0.798
122.100	114.000	82.000	91.000	0.798
120.700	114.100	81.100	91.000	0.798
119.100	114.100	80.200	91.000	0.797
117.300	114.100	79.700	91.000	0.797
115.400	114.100	79.000	91.000	0.797
113.700	114.100	78.200	91.000	0.797
112.300	114.100	77.300	90.900	0.797
110.900	114.100	76.600	90.900	0.797
109.700	114.100	76.100	90.900	0.797
108.700	114.100	75.400	90.900	0.797
107.600	114.100	74.900	90.900	0.797
106.500	114.100	74.100	90.900	0.797
105.400	114.100	73.500	90.900	0.797
104.400	114.100	73.000	90.900	0.797
103.300	114.100	72.300	90.900	0.797
102.400	114.100	71.800	90.900	0.796
101.400	114.100	71.300	90.900	0.796
100.400	114.100	71.000	90.900	0.796
99.500	114.100	70.700	90.900	0.796
98.600	114.100	70.200	90.900	0.796
97.700	114.100	69.600	90.900	0.796
96.700	114.100	69.400	90.900	0.796
95.900	114.100	68.800	90.800	0.796
95.100	114.100	68.400	90.800	0.796
94.500	114.100	68.200	90.800	0.796
93.900	114.100	68.100	90.800	0.796
93.500	114.100	67.900	90.800	0.796
93.200	114.100	67.700	90.800	0.796
92.900	114.100	67.600	90.800	0.796
92.700	114.100	67.200	90.800	0.796
92.500	114.100	66.900	90.800	0.795
92.300	114.100	66.700	90.800	0.795
91.700	114.100	66.900	90.700	0.795
91.000	114.100	66.700	90.700	0.795
90.400	114.100	66.900	90.700	0.795
89.800	114.100	67.800	90.700	0.795
89.100	114.100	68.700	90.700	0.795
88.500	114.100	68.200	90.700	0.795
88.000	114.100	67.400	90.700	0.795
88.300	114.000	67.200	90.700	0.795
88.100	114.000	66.800	90.600	0.795
84.500	113.900	66.100	90.600	0.795
86.300	113.800	65.900	90.500	0.795
86.700	113.700	67.300	90.400	0.795
100.600	113.700	71.000	90.300	0.795
103.000	113.700	75.400	90.300	0.794
104.300	113.600	79.900	90.200	0.794
105.800	113.600	83.200	90.100	0.793
106.400	113.600	86.000	90.000	0.792
105.900	113.600	89.700	89.900	0.792
106.600	113.500	94.700	89.900	0.792
107.600	113.500	99.100	89.800	0.791
109.500	113.400	102.800	89.700	0.791
111.400	113.300	106.300	89.700	0.791
114.100	113.300	109.200	89.700	0.792
118.700	113.200	111.900	89.600	0.792
123.000	113.100	114.600	89.600	0.792
126.700	113.100	116.800	89.500	0.792
130.300	113.000	118.700	89.500	0.792
134.500	113.000	120.800	89.500	0.792
137.700	113.000	122.800	89.500	0.792
139.900	113.000	124.300	89.500	0.792
141.700	113.000	125.700	89.500	0.792
143.600	113.000	127.100	89.500	0.792
144.300	113.000	128.300	89.500	0.792
144.100	113.000	128.900	89.500	0.792
144.400	113.000	129.200	89.500	0.792
144.600	113.000	129.500	89.500	0.792
144.300	113.000	129.600	89.500	0.792
144.200	113.100	129.600	89.500	0.792
144.300	113.100	129.200	89.600	0.792
143.800	113.100	128.500	89.700	0.792
143.100	113.200	127.300	89.700	0.793
142.100	113.300	125.900	89.900	0.793
140.300	113.400	122.900	90.000	0.794
137.200	113.500	119.100	90.100	0.794
132.400	113.500	113.500	90.200	0.794
126.200	113.600	106.700	90.200	0.795
120.700	113.600	100.100	90.300	0.795
120.500	113.600	96.200	90.300	0.795
117.900	113.600	94.100	90.400	0.796
116.700	113.600	92.200	90.400	0.796
117.400	113.500	89.800	90.500	0.797
119.500	113.500	87.900	90.500	0.797
120.100	113.500	86.200	90.500	0.797
120.500	113.600	84.400	90.500	0.797
120.900	113.600	82.900	90.600	0.797
120.800	113.600	81.700	90.600	0.797
119.700	113.600	80.900	90.600	0.797
118.400	113.700	80.000	90.600	0.797
117.000	113.700	79.100	90.600	0.797
115.200	113.700	78.200	90.700	0.797
113.600	113.800	77.400	90.700	0.797
112.000	113.800	76.600	90.700	0.797
110.600	113.800	76.000	90.700	0.797
109.200	113.800	75.400	90.700	0.797
107.900	113.800	74.700	90.700	0.797
106.700	113.900	74.200	90.800	0.797
105.700	113.900	73.800	90.800	0.797
104.600	113.900	73.000	90.800	0.797
103.400	113.900	72.300	90.800	0.797
102.500	113.900	71.800	90.800	0.797
101.500	113.900	71.400	90.800	0.797
100.500	114.000	70.700	90.800	0.797
99.600	114.000	70.100	90.800	0.797
98.700	114.000	69.900	90.900	0.797
97.900	114.000	69.500	90.900	0.797
96.900	114.000	69.100	90.900	0.797
96.100	114.000	68.800	90.900	0.797
95.100	114.000	68.000	90.900	0.797
94.400	114.000	67.600	90.900	0.797
93.500	114.000	67.600	90.900	0.797
92.800	114.000	67.100	90.900	0.797
92.100	114.000	66.600	90.900	0.797
91.500	114.000	66.500	90.900	0.797
91.100	114.000	66.400	90.900	0.797
90.700	114.000	66.700	90.900	0.797
90.600	114.100	66.800	90.900	0.797
90.600	114.100	66.400	90.900	0.797
89.800	114.100	65.600	90.900	0.797
89.800	114.100	65.300	90.900	0.797
89.500	114.100	64.900	90.900	0.797
89.100	114.100	64.400	90.800	0.796
88.400	114.100	64.800	90.800	0.796
88.000	114.000	65.400	90.700	0.796
87.300	114.000	66.100	90.700	0.796
86.500	113.900	66.400	90.600	0.795
85.900	113.800	65.900	90.500	0.795
85.400	113.700	65.200	90.400	0.795
85.100	113.600	64.700	90.200	0.794
84.100	113.500	64.300	90.100	0.793
83.600	113.400	64.000	89.900	0.793
83.900	113.300	64.000	89.700	0.792
98.200	113.200	65.100	89.500	0.791
100.100	113.100	68.800	89.300	0.790
101.000	113.000	73.200	89.100	0.789
102.700	112.800	77.400	89.000	0.789
103.200	112.700	81.100	88.800	0.788
101.600	112.600	84.100	88.700	0.788
101.600	112.400	87.700	88.500	0.788
102.800	112.300	92.200	88.400	0.787
104.400	112.100	96.300	88.300	0.787
106.600	112.000	99.900	88.200	0.787
108.000	111.800	103.200	88.100	0.788
110.800	111.700	106.000	88.000	0.788
114.200	111.600	108.600	87.900	0.788
119.500	111.400	110.900	87.800	0.788
122.400	111.400	113.200	87.700	0.788
126.300	111.300	114.800	87.700	0.788
130.200	111.200	116.500	87.600	0.788
133.500	111.200	118.600	87.600	0.788
134.900	111.100	120.500	87.600	0.788
137.400	111.100	122.000	87.600	0.788
139.100	111.100	123.300	87.600	0.788
139.500	111.100	123.900	87.600	0.788
139.600	111.200	124.600	87.700	0.789
140.000	111.300	124.600	87.800	0.789
139.800	111.300	124.800	87.900	0.789
139.200	111.400	124.900	88.000	0.790
139.100	111.500	124.800	88.100	0.790
138.900	111.600	124.700	88.300	0.791
138.400	111.600	123.900	88.400	0.792
137.500	111.700	122.600	88.500	0.793
136.400	111.800	120.700	88.700	0.794
134.600	111.800	118.000	88.800	0.794
131.100	111.800	113.600	88.900	0.795
126.200	111.900	108.000	89.100	0.796
119.700	111.800	101.300	89.100	0.797
115.900	111.800	95.200	89.200	0.798
115.300	111.800	91.700	89.300	0.798
112.900	111.800	89.500	89.300	0.799
112.200	111.800	87.300	89.300	0.799
113.500	111.800	85.200	89.400	0.799
115.000	111.800	83.000	89.400	0.799
115.700	111.800	80.800	89.400	0.799
116.200	111.900	79.000	89.400	0.799
116.400	111.900	78.000	89.400	0.799
115.800	111.900	76.800	89.500	0.799
115.200	112.000	75.400	89.500	0.799
113.700	112.000	75.000	89.500	0.799
112.100	112.000	74.300	89.500	0.799
110.600	112.100	73.400	89.500	0.798
108.800	112.100	73.000	89.500	0.798
107.200	112.100	72.500	89.500	0.798
105.800	112.100	71.700	89.500	0.798
104.500	112.200	71.000	89.500	0.798
103.200	112.200	70.300	89.500	0.798
102.100	112.200	69.400	89.500	0.798
101.200	112.200	68.700	89.500	0.798
100.000	112.200	68.000	89.500	0.797
98.900	112.200	67.800	89.500	0.797
98.000	112.200	67.100	89.500	0.797
97.000	112.200	66.500	89.500	0.797
96.000	112.300	66.100	89.500	0.797
95.100	112.300	65.700	89.500	0.797
94.200	112.300	65.200	89.400	0.797
93.200	112.300	65.000	89.400	0.797
92.600	112.300	64.400	89.400	0.796
91.700	112.300	63.700	89.400	0.796
90.800	112.300	63.300	89.400	0.796
90.000	112.300	63.100	89.300	0.796
89.200	112.300	62.800	89.300	0.796
88.400	112.300	62.100	89.300	0.795
87.600	112.300	61.400	89.300	0.795
86.900	112.200	61.300	89.200	0.795
86.400	112.200	60.900	89.200	0.795
85.900	112.200	60.700	89.100	0.794
85.400	112.200	61.000	89.100	0.794
85.200	112.200	60.600	89.000	0.793
85.300	112.200	60.600	88.900	0.792
85.100	112.100	60.800	88.700	0.791
85.000	112.100	60.500	88.600	0.790
85.000	112.000	60.300	88.400	0.789
84.600	111.900	60.000	88.300	0.789
84.300	111.800	59.600	88.100	0.788
83.900	111.600	59.900	87.900	0.787
83.300	111.400	60.700	87.600	0.786
82.500	111.200	61.600	87.400	0.786
81.800	111.000	61.900	87.200	0.785
81.100	110.800	61.500	87.000	0.785
80.400	110.600	60.400	86.700	0.784
82.300	110.300	59.800	86.500	0.784
94.900	110.200	59.700	86.200	0.783
96.700	110.000	59.000	85.900	0.781
97.000	109.800	58.900	85.700	0.780
98.500	109.600	59.600	85.400	0.779
98.400	109.400	62.500	85.100	0.778
96.500	109.200	66.900	84.900	0.777
95.300	109.000	71.600	84.600	0.776
94.200	108.800	75.200	84.400	0.775
93.500	110.400	78.200	86.500	0.783
94.400	110.300	81.700	86.400	0.783
96.000	110.100	86.600	86.300	0.783
98.000	110.000	91.200	86.200	0.783
100.200	109.900	95.100	86.100	0.783
102.100	109.700	98.300	86.000	0.784
104.800	109.600	101.000	85.900	0.784
108.800	109.500	103.100	85.800	0.784
113.600	109.400	105.400	85.700	0.784
118.100	109.300	106.900	85.700	0.784
121.200	109.200	108.400	85.600	0.784
124.400	109.100	110.300	85.500	0.784
128.000	109.100	112.300	85.400	0.783
129.100	109.000	114.200	85.400	0.783
130.800	108.900	115.800	85.300	0.783
133.000	108.900	116.900	85.300	0.783
133.200	108.800	118.200	85.200	0.783
133.700	108.800	119.200	85.200	0.783
133.800	108.700	119.500	85.100	0.783
133.700	108.700	119.500	85.100	0.783
133.700	108.700	119.800	85.100	0.783
133.500	108.600	119.700	85.100	0.783
132.900	108.600	119.700	85.100	0.783
133.000	108.600	119.200	85.100	0.784
131.900	108.700	118.200	85.200	0.784
130.900	108.700	116.700	85.300	0.784
129.100	108.700	114.700	85.300	0.785
126.200	108.800	110.800	85.400	0.785
121.700	108.800	105.300	85.400	0.785
115.600	108.800	99.100	85.500	0.786
110.500	108.700	92.700	85.500	0.786
109.400	108.700	87.900	85.500	0.787
108.400	108.600	85.600	85.500	0.787
108.400	108.600	83.800	85.500	0.788
108.700	108.500	81.600	85.500	0.788
110.300	108.500	79.300	85.500	0.788
111.600	108.400	77.000	85.500	0.788
111.900	108.400	74.400	85.500	0.788
111.600	108.400	73.000	85.500	0.788
112.200	108.400	72.000	85.400	0.788
111.100	108.400	71.700	85.400	0.788
109.800	108.400	71.300	85.400	0.788
108.400	108.400	70.900	85.400	0.788
107.000	108.400	70.300	85.400	0.788
105.400	108.400	70.000	85.300	0.787
104.100	108.400	69.400	85.300	0.787
102.900	108.400	69.000	85.300	0.787
101.900	108.300	68.500	85.300	0.787
100.800	108.300	68.000	85.300	0.787
99.800	108.300	67.200	85.300	0.787
98.900	108.300	67.000	85.200	0.787
98.100	108.300	66.600	85.200	0.787
97.000	108.300	65.800	85.200	0.787
96.200	108.300	65.400	85.200	0.787
95.200	108.300	65.000	85.200	0.786
94.200	108.300	64.700	85.100	0.786
93.400	108.300	64.800	85.100	0.786
92.500	108.300	64.400	85.100	0.786
91.600	108.200	63.800	85.100	0.786
90.900	108.200	63.500	85.100	0.786
90.100	108.200	62.900	85.100	0.786
89.200	108.200	62.400	85.000	0.786
88.400	108.200	62.200	85.000	0.786
87.600	108.200	62.000	85.000	0.786
86.900	108.100	61.700	85.000	0.786
86.300	108.100	61.500	85.000	0.786
85.700	108.100	61.300	84.900	0.786
85.100	108.100	61.100	84.900	0.786
84.700	108.100	61.000	84.900	0.786
84.500	108.000	60.800	84.900	0.786
84.300	108.000	61.000	84.800	0.785
84.400	108.000	60.700	84.800	0.785
84.300	108.000	60.700	84.800	0.785
84.200	108.000	60.800	84.800	0.785
84.300	108.000	60.700	84.700	0.785
83.900	108.000	60.200	84.700	0.785
83.200	107.900	60.300	84.700	0.785
83.000	107.900	60.700	84.700	0.785
82.400	107.900	61.600	84.600	0.785
81.700	107.800	62.500	84.600	0.785
81.000	107.700	62.600	84.500	0.785
80.600	107.600	61.900	84.400	0.785
80.100	107.500	61.500	84.300	0.785
79.900	107.400	61.200	84.200	0.784
79.000	107.300	60.900	84.100	0.784
78.400	107.200	60.300	84.000	0.783
78.400	107.100	60.600	83.800	0.783
78.100	106.900	62.500	83.600	0.782
78.000	106.800	66.200	83.500	0.782
78.900	106.700	70.700	83.300	0.781
79.800	106.500	74.800	83.200	0.781
80.000	106.300	77.900	83.000	0.781
82.700	106.500	80.900	83.500	0.785
88.700	106.400	84.800	83.500	0.785
95.300	106.300	89.500	83.400	0.785
101.700	106.200	93.200	83.300	0.784
107.500	106.200	96.400	83.300	0.784
112.300	106.100	99.300	83.200	0.784
116.000	106.100	101.600	83.100	0.784
119.900	106.000	104.300	83.100	0.784
122.300	106.000	106.300	83.000	0.783
123.200	105.900	108.300	82.900	0.783
123.900	105.800	110.300	82.900	0.783
126.000	105.800	112.300	82.800	0.783
126.800	105.700	114.100	82.800	0.783
127.900	105.600	115.900	82.700	0.783
129.100	105.600	117.300	82.700	0.783
131.200	105.500	118.500	82.700	0.783
131.700	105.500	119.200	82.600	0.783
132.500	105.500	119.600	82.600	0.783
132.900	105.400	119.900	82.500	0.783
133.200	105.400	120.500	82.500	0.783
133.200	105.300	120.400	82.500	0.783
133.200	105.300	120.000	82.500	0.783
132.900	105.300	119.700	82.500	0.783
132.200	105.300	119.200	82.500	0.783
131.200	105.200	118.100	82.500	0.784
129.800	105.300	116.300	82.500	0.784
127.400	105.300	113.700	82.600	0.784
123.700	105.300	109.500	82.600	0.784
118.800	105.300	104.100	82.600	0.785
112.700	105.300	97.900	82.700	0.785
110.100	105.300	91.700	82.700	0.785
108.900	105.200	88.100	82.700	0.786
107.700	105.200	86.100	82.700	0.786
107.300	105.100	84.000	82.700	0.786
108.400	105.100	81.900	82.700	0.787
109.700	105.000	80.000	82.700	0.787
110.500	105.000	77.700	82.600	0.787
110.800	105.000	76.100	82.600	0.787
111.000	105.000	75.000	82.600	0.787
110.500	104.900	74.000	82.600	0.787
109.600	104.900	73.500	82.600	0.787
108.400	104.900	73.400	82.600	0.787
107.100	104.900	72.900	82.600	0.787
105.600	104.900	72.300	82.600	0.787
104.200	104.900	71.900	82.500	0.787
102.900	104.900	71.200	82.500	0.787
101.600	104.800	70.600	82.500	0.787
100.600	104.800	69.800	82.500	0.787
99.500	104.800	69.300	82.500	0.787
98.400	104.800	68.800	82.500	0.787
97.500	104.800	68.300	82.500	0.787
96.500	104.800	67.800	82.500	0.787
95.500	104.800	67.200	82.500	0.787
94.600	104.700	66.800	82.400	0.787
93.700	104.700	66.300	82.400	0.787
92.900	104.700	65.700	82.400	0.787
92.000	104.700	65.600	82.400	0.787
91.200	104.700	65.400	82.400	0.787
90.400	104.700	65.100	82.400	0.787
89.600	104.600	65.100	82.400	0.787
88.700	104.600	64.400	82.400	0.787
87.900	104.600	63.900	82.400	0.787
87.100	104.600	63.500	82.300	0.787
86.200	104.600	62.900	82.300	0.787
85.600	104.600	62.400	82.300	0.787
84.900	104.500	62.500	82.300	0.787
84.300	104.500	62.200	82.300	0.787
83.600	104.500	61.800	82.300	0.787
83.100	104.500	61.300	82.300	0.787
82.700	104.400	61.300	82.200	0.787
82.400	104.400	61.400	82.200	0.788
82.200	104.400	61.200	82.200	0.788
82.200	104.400	61.200	82.200	0.788
82.200	104.400	60.900	82.200	0.788
81.700	104.300	60.600	82.200	0.787
81.600	104.300	60.300	82.100	0.787
81.400	104.300	60.100	82.100	0.787
81.200	104.300	59.800	82.100	0.787
80.600	104.300	60.200	82.100	0.787
80.000	104.300	60.900	82.100	0.787
79.200	104.200	62.000	82.100	0.787
78.600	104.200	62.000	82.100	0.788
78.000	104.100	61.200	82.000	0.788
77.600	104.000	60.900	82.000	0.788
77.000	103.900	60.800	81.900	0.788
76.400	103.800	60.400	81.800	0.788
75.900	103.700	59.600	81.800	0.788
75.700	103.600	59.600	81.700	0.788
75.400	103.500	61.800	81.500	0.788
75.400	103.400	65.200	81.400	0.787
76.400	103.300	69.600	81.300	0.787
84.200	103.200	73.800	81.200	0.787
90.400	103.100	76.900	81.100	0.786
93.200	103.200	79.600	81.400	0.789
96.500	103.100	83.400	81.400	0.789
102.200	103.100	88.300	81.400	0.789
106.300	103.100	91.900	81.300	0.789
105.000	103.100	94.700	81.300	0.788
104.600	103.100	97.000	81.300	0.788
106.800	103.100	99.100	81.200	0.788
110.600	103.000	101.600	81.200	0.788
112.700	103.000	104.100	81.200	0.788
114.800	103.000	106.400	81.100	0.788
118.800	102.900	108.300	81.100	0.788
122.500	102.900	110.200	81.100	0.788
124.700	102.800	112.400	81.100	0.788
127.900	102.800	114.600	81.000	0.788
129.900	102.800	115.900	81.000	0.788
131.000	102.700	117.000	81.000	0.788
131.400	102.700	117.800	80.900	0.788
132.500	102.700	118.200	80.900	0.788
131.800	102.700	118.400	80.900	0.788
131.100	102.600	118.600	80.900	0.788
130.500	102.600	118.300	80.900	0.788
130.300	102.600	118.100	80.800	0.788
129.500	102.500	117.500	80.800	0.788
128.600	102.500	117.000	80.800	0.788
127.900	102.500	115.800	80.800	0.788
126.500	102.400	113.900	80.800	0.788
124.500	102.400	111.300	80.700	0.788
121.300	102.400	107.500	80.700	0.789
117.000	102.400	102.700	80.800	0.789
110.800	102.400	97.000	80.800	0.789
107.800	102.300	90.800	80.800	0.789
107.800	102.300	86.600	80.700	0.789
105.200	102.300	84.500	80.700	0.789
104.300	102.300	82.400	80.700	0.789
105.300	102.200	80.500	80.700	0.790
106.700	102.200	78.800	80.700	0.790
107.100	102.200	77.000	80.700	0.790
107.500	102.100	76.000	80.700	0.790
107.700	102.100	75.100	80.700	0.790
107.400	102.100	74.300	80.700	0.790
106.500	102.100	73.500	80.700	0.791
105.400	102.000	73.200	80.700	0.791
104.200	102.000	72.500	80.700	0.791
102.900	102.000	72.100	80.700	0.791
101.500	102.000	71.400	80.700	0.791
100.100	101.900	70.900	80.700	0.791
99.000	101.900	70.400	80.700	0.791
97.900	101.900	69.600	80.700	0.791
96.800	101.900	68.800	80.700	0.792
96.100	101.900	68.400	80.700	0.792
95.100	101.800	67.900	80.700	0.792
94.100	101.800	67.300	80.600	0.792
93.100	101.800	66.800	80.600	0.792
92.200	101.800	66.300	80.600	0.792
91.400	101.800	65.800	80.600	0.792
90.400	101.800	65.400	80.600	0.792
89.500	101.700	65.100	80.600	0.793
88.700	101.700	65.000	80.600	0.793
87.800	101.700	64.400	80.600	0.793
87.100	101.700	64.200	80.600	0.793
86.300	101.700	63.600	80.600	0.793
85.500	101.700	63.100	80.600	0.793
84.900	101.600	62.700	80.600	0.793
84.000	101.600	62.500	80.600	0.794
83.300	101.600	62.000	80.700	0.794
82.700	101.600	61.400	80.700	0.794
82.000	101.600	61.200	80.700	0.794
81.300	101.600	61.000	80.700	0.794
80.600	101.500	60.400	80.700	0.794
80.200	101.500	60.000	80.600	0.794
79.700	101.500	60.000	80.600	0.794
79.400	101.500	59.800	80.600	0.795
79.200	101.500	59.700	80.600	0.795
79.100	101.400	59.900	80.600	0.795
79.100	101.400	59.500	80.600	0.795
79.000	101.400	59.200	80.600	0.795
78.600	101.400	58.800	80.600	0.795
78.600	101.400	58.700	80.600	0.795
78.300	101.400	58.600	80.600	0.795
78.000	101.300	58.500	80.600	0.795
79.100	101.300	58.200	80.600	0.795
77.400	101.300	59.400	80.600	0.795
74.000	101.300	59.600	80.600	0.796
73.600	101.200	58.300	80.600	0.796
73.500	101.100	57.400	80.600	0.797
88.100	101.100	57.100	80.600	0.797
89.700	101.100	56.700	80.600	0.797
90.500	101.000	56.100	80.500	0.797
91.700	101.000	56.000	80.500	0.797
92.400	101.000	57.400	80.400	0.796
90.400	101.000	60.700	80.400	0.796
89.000	101.000	64.700	80.300	0.796
88.000	101.000	69.000	80.300	0.795
87.100	100.900	72.500	80.200	0.795
87.700	100.900	74.800	80.200	0.795
89.900	100.900	78.300	80.100	0.794
91.600	100.800	82.900	80.100	0.794
92.900	100.800	87.100	80.000	0.794
93.900	100.700	90.000	80.000	0.794
94.600	100.600	92.100	79.900	0.794
97.200	100.600	94.400	79.900	0.794
101.600	100.500	96.500	79.800	0.794
105.500	100.400	98.800	79.800	0.794
109.300	100.400	100.900	79.800	0.795
113.400	100.300	102.600	79.700	0.795
117.200	100.300	104.300	79.700	0.795
119.200	100.200	105.700	79.600	0.795
121.300	100.200	107.200	79.600	0.795
122.600	100.100	108.400	79.500	0.794
123.100	100.100	109.700	79.500	0.794
122.800	100.000	110.400	79.500	0.794
122.600	100.000	110.500	79.400	0.794
122.200	100.000	110.500	79.400	0.794
121.500	99.900	110.800	79.400	0.794
121.100	99.900	110.700	79.300	0.794
120.700	99.800	110.600	79.300	0.794
120.100	99.800	109.900	79.300	0.795
119.500	99.800	109.200	79.300	0.795
118.700	99.700	108.000	79.300	0.795
117.500	99.700	106.200	79.300	0.795
115.100	99.700	103.400	79.300	0.795
111.500	99.700	99.100	79.300	0.795
106.500	99.700	93.700	79.300	0.796
100.800	99.700	87.400	79.300	0.796
100.100	99.700	81.500	79.300	0.796
98.800	99.600	78.400	79.300	0.796
97.300	99.600	76.700	79.300	0.796
96.900	99.500	74.900	79.300	0.797
98.700	99.500	73.000	79.300	0.797
99.300	99.400	70.700	79.300	0.797
99.300	99.400	69.200	79.300	0.798
99.300	99.300	67.900	79.300	0.798
99.200	99.300	67.000	79.200	0.798
98.300	99.300	66.600	79.200	0.798
97.100	99.200	66.200	79.200	0.798
95.900	99.200	65.800	79.200	0.798
94.600	99.200	65.600	79.200	0.799
93.300	99.100	64.900	79.200	0.799
92.200	99.100	64.200	79.200	0.799
91.200	99.100	63.700	79.100	0.799
90.200	99.000	63.300	79.100	0.799
89.200	99.000	62.600	79.100	0.799
88.500	99.000	62.000	79.100	0.799
87.800	98.900	61.500	79.100	0.799
87.100	98.900	61.300	79.100	0.800
86.300	98.900	60.800	79.000	0.800
85.400	98.800	60.400	79.000	0.800
84.600	98.800	60.000	79.000	0.800
83.800	98.800	59.600	79.000	0.800
83.000	98.700	59.100	79.000	0.800
82.200	98.700	58.700	79.000	0.800
81.400	98.700	58.300	78.900	0.800
80.600	98.600	57.900	78.900	0.800
79.800	98.600	57.600	78.900	0.800
79.100	98.600	57.300	78.900	0.800
78.400	98.500	56.900	78.900	0.800
77.700	98.500	56.400	78.900	0.801
77.000	98.500	56.000	78.800	0.801
76.300	98.400	55.800	78.800	0.801
75.800	98.400	55.600	78.800	0.801
75.100	98.400	55.200	78.800	0.801
74.600	98.300	55.200	78.800	0.801
74.100	98.300	55.100	78.700	0.801
73.800	98.300	54.800	78.700	0.801
73.800	98.200	54.600	78.700	0.801
73.800	98.200	54.300	78.700	0.801
73.800	98.200	54.200	78.700	0.801
73.700	98.100	53.900	78.600	0.801
73.700	98.100	53.800	78.600	0.801
73.500	98.100	53.700	78.600	0.801
73.100	98.000	53.600	78.500	0.801
72.400	98.000	53.700	78.500	0.801
71.800	98.000	54.100	78.500	0.801
71.100	97.900	55.000	78.500	0.801
70.300	97.900	55.200	78.400	0.801
69.700	97.900	54.000	78.400	0.801
69.300	97.800	53.300	78.400	0.801
68.900	97.800	53.300	78.400	0.801
68.600	97.800	52.800	78.300	0.801
73.000	97.700	52.300	78.300	0.801
82.000	97.800	52.400	78.200	0.800
83.700	97.800	53.500	78.100	0.799
84.200	97.800	56.600	78.100	0.798
86.300	97.800	60.900	78.000	0.797
86.200	97.800	65.300	77.900	0.797
84.500	97.700	68.900	77.800	0.796
84.600	97.700	71.600	77.800	0.796
85.800	97.600	74.100	77.700	0.796
87.700	97.500	78.800	77.600	0.796
90.000	97.400	83.900	77.500	0.796
92.200	97.300	87.400	77.500	0.796
93.700	97.200	89.800	77.400	0.796
96.800	97.100	92.000	77.400	0.797
100.700	97.000	93.800	77.300	0.797
103.800	97.000	95.000	77.200	0.797
106.000	96.900	96.200	77.200	0.797
108.900	96.800	97.500	77.100	0.796
110.800	96.700	98.900	77.000	0.796
112.400	96.700	100.400	77.000	0.796
114.000	96.600	102.400	76.900	0.796
115.100	96.600	103.800	76.900	0.796
116.100	96.500	104.800	76.800	0.796
116.500	96.400	105.700	76.700	0.796
117.000	96.400	106.600	76.700	0.796
116.800	96.300	106.700	76.600	0.796
116.500	96.300	106.600	76.600	0.796
116.100	96.200	106.400	76.600	0.796
115.600	96.100	106.100	76.500	0.796
114.500	96.100	105.300	76.500	0.796
113.500	96.000	104.200	76.400	0.796
112.100	96.000	103.100	76.400	0.796
110.100	96.000	101.100	76.400	0.796
106.900	95.900	97.600	76.400	0.796
102.900	95.900	92.800	76.400	0.797
97.500	95.900	87.500	76.400	0.797
95.400	95.800	81.500	76.400	0.797
93.800	95.800	76.900	76.400	0.797
93.200	95.700	74.900	76.300	0.797
92.700	95.700	73.600	76.300	0.798
93.500	95.600	72.000	76.300	0.798
94.400	95.500	70.100	76.300	0.798
94.900	95.500	68.300	76.200	0.799
95.400	95.400	66.800	76.200	0.799
94.900	95.400	65.500	76.200	0.799
94.300	95.300	64.900	76.200	0.799
93.700	95.300	64.700	76.100	0.799
92.700	95.200	64.500	76.100	0.799
91.500	95.200	64.500	76.100	0.799
90.600	95.100	64.200	76.100	0.799
89.700	95.100	64.000	76.000	0.799
89.000	95.100	63.400	76.000	0.800
88.300	95.000	63.200	76.000	0.800
87.800	95.000	62.900	76.000	0.800
87.200	94.900	62.400	75.900	0.800
86.600	94.900	62.500	75.900	0.800
86.100	94.900	62.400	75.900	0.800
85.400	94.800	62.000	75.900	0.800
84.800	94.800	62.000	75.900	0.800
84.000	94.800	61.700	75.900	0.800
83.300	94.700	61.300	75.800	0.801
82.700	94.700	60.800	75.800	0.801
82.000	94.700	60.800	75.800	0.801
81.300	94.600	60.400	75.800	0.801
80.700	94.600	59.900	75.800	0.801
79.900	94.600	59.700	75.800	0.801
79.300	94.600	59.400	75.700	0.801
78.500	94.500	59.300	75.700	0.801
77.900	94.500	58.900	75.700	0.801
77.300	94.500	58.400	75.700	0.801
76.800	94.400	58.200	75.700	0.801
76.200	94.400	58.000	75.700	0.801
75.800	94.400	57.600	75.700	0.802
75.400	94.400	57.800	75.600	0.802
75.100	94.300	57.800	75.600	0.802
75.100	94.300	57.500	75.600	0.802
75.100	94.300	57.600	75.600	0.802
74.900	94.300	57.700	75.600	0.802
74.900	94.200	57.400	75.600	0.802
74.600	94.200	57.200	75.600	0.802
74.300	94.200	57.000	75.600	0.802
73.800	94.200	56.900	75.600	0.802
73.200	94.100	57.300	75.500	0.802
72.500	94.100	58.100	75.500	0.803
72.000	94.100	58.400	75.500	0.803
71.300	94.100	57.600	75.500	0.803
70.700	94.000	56.500	75.500	0.803
70.300	94.000	56.100	75.500	0.803
69.900	94.000	56.200	75.500	0.803
69.500	94.000	56.000	75.400	0.803
69.100	93.900	55.900	75.400	0.803
69.100	93.900	57.000	75.400	0.803
69.600	93.900	60.200	75.400	0.803
70.800	93.900	64.600	75.400	0.803
72.100	93.800	68.900	75.400	0.803
73.100	93.800	72.200	75.400	0.804
78.200	93.800	74.200	75.400	0.804
85.300	93.700	76.800	75.400	0.804
91.400	93.700	81.400	75.400	0.804
96.200	93.700	85.900	75.400	0.804
100.700	93.700	89.000	75.400	0.804
103.000	93.700	91.000	75.300	0.804
105.700	93.700	93.000	75.300	0.804
107.900	93.700	95.400	75.300	0.804
109.800	93.700	97.700	75.300	0.804
110.600	93.700	99.600	75.300	0.804
111.600	93.700	101.100	75.300	0.804
112.400	93.600	102.300	75.200	0.804
113.600	93.600	103.800	75.200	0.804
115.100	93.600	105.700	75.200	0.804
116.400	93.500	106.900	75.200	0.804
117.700	93.500	108.000	75.100	0.804
118.600	93.400	109.000	75.100	0.804
119.000	93.400	109.400	75.100	0.804
119.200	93.300	109.700	75.000	0.804
119.000	93.300	109.500	75.000	0.804
118.500	93.200	109.600	75.000	0.804
117.900	93.200	109.200	74.900	0.804
116.900	93.200	108.500	74.900	0.804
115.700	93.100	107.700	74.900	0.804
114.300	93.100	106.400	74.800	0.804
112.300	93.000	104.100	74.800	0.804
109.400	92.900	101.000	74.700	0.804
105.300	92.900	96.900	74.700	0.804
99.900	92.800	91.600	74.600	0.804
96.800	92.700	85.400	74.600	0.804
96.100	92.700	80.100	74.500	0.804
94.600	92.600	77.800	74.500	0.804
94.300	92.600	77.200	74.400	0.804
94.500	92.500	75.700	74.400	0.804
95.400	92.500	74.000	74.400	0.804
95.900	92.500	72.300	74.300	0.804
96.000	92.400	70.900	74.300	0.804
96.300	92.400	70.000	74.300	0.804
96.000	92.300	69.900	74.300	0.804
95.200	92.300	69.900	74.200	0.804
94.400	92.200	70.000	74.200	0.805
93.400	92.200	70.000	74.200	0.805
92.300	92.200	69.700	74.200	0.805
91.300	92.100	69.000	74.200	0.806
90.400	92.100	68.300	74.200	0.806
89.600	92.000	68.100	74.200	0.806
88.700	92.000	67.800	74.200	0.806
88.000	91.900	67.000	74.100	0.806
87.300	91.900	66.600	74.100	0.807
86.600	91.900	66.300	74.100	0.807
86.000	91.800	65.800	74.100	0.807
85.300	91.800	65.300	74.100	0.807
84.600	91.800	65.100	74.100	0.808
83.700	91.700	64.900	74.100	0.808
83.100	91.700	64.400	74.100	0.808
82.500	91.700	64.000	74.100	0.808
81.700	91.600	63.800	74.100	0.808
81.100	91.600	63.800	74.100	0.809
81.100	91.600	63.200	74.100	0.809
80.400	91.500	62.600	74.100	0.809
79.800	91.500	62.400	74.000	0.809
79.100	91.500	62.100	74.000	0.809
78.400	91.500	61.600	74.000	0.809
77.700	91.400	61.200	74.000	0.810
77.000	91.400	60.700	74.000	0.810
76.300	91.400	60.600	74.000	0.810
75.900	91.400	60.600	74.000	0.810
75.400	91.300	60.400	74.000	0.810
75.000	91.300	60.200	74.000	0.811
74.900	91.300	60.000	74.000	0.811
74.800	91.300	59.600	74.000	0.811
74.700	91.300	59.100	74.000	0.811
74.700	91.200	59.000	74.000	0.811
74.500	91.200	58.800	74.000	0.811
74.200	91.200	58.400	74.000	0.811
73.700	91.200	58.500	74.000	0.811
73.200	91.200	58.800	74.000	0.812
72.500	91.100	59.700	74.000	0.812
71.800	91.100	59.600	74.000	0.812
71.200	91.100	58.400	74.000	0.812
70.600	91.100	57.800	74.000	0.813
70.100	91.000	57.900	74.000	0.813
69.600	91.000	57.500	74.000	0.813
69.200	91.000	57.200	74.000	0.813
68.800	91.000	57.500	74.000	0.813
68.600	90.900	59.600	74.000	0.813
68.700	90.900	63.300	74.000	0.814
69.600	90.800	67.700	74.000	0.815
70.900	90.700	71.400	74.100	0.817
72.100	90.700	73.600	74.200	0.818
75.700	90.600	75.600	74.200	0.819
83.200	90.600	79.700	74.300	0.820
90.200	90.600	84.800	74.400	0.821
95.100	90.600	88.000	74.400	0.822
98.900	90.600	89.800	74.500	0.822
100.600	90.700	91.200	74.600	0.822
103.500	90.700	93.200	74.600	0.822
105.400	90.800	96.000	74.700	0.822
107.200	90.800	98.600	74.700	0.822
108.500	90.900	100.500	74.700	0.822
109.600	91.000	101.900	74.800	0.822
111.000	91.000	103.700	74.800	0.822
112.700	91.000	105.300	74.800	0.822
114.200	91.100	107.000	74.900	0.822
116.100	91.100	108.300	74.900	0.822
116.900	91.100	108.900	74.900	0.822
118.100	91.100	109.400	74.900	0.822
118.400	91.100	109.300	75.000	0.823
118.100	91.100	108.900	75.000	0.823
117.500	91.100	108.500	75.000	0.823
116.800	91.100	108.300	75.000	0.823
116.000	91.000	107.600	74.900	0.823
115.000	91.000	106.700	74.900	0.823
113.900	91.000	105.400	74.900	0.823
112.500	90.900	103.600	74.900	0.823
110.900	90.900	100.700	74.800	0.823
108.400	90.900	96.700	74.800	0.823
104.900	90.800	92.100	74.700	0.823
99.800	90.700	86.600	74.700	0.823
95.800	90.700	81.000	74.600	0.822
96.400	90.600	78.300	74.500	0.822
94.400	90.500	77.200	74.400	0.822
93.000	90.400	76.000	74.300	0.821
93.300	90.400	74.500	74.200	0.821
94.300	90.400	73.300	74.200	0.821
94.400	90.300	72.500	74.100	0.820
94.600	90.300	72.200	74.100	0.820
95.100	90.300	72.500	74.100	0.820
94.900	90.300	72.700	74.100	0.820
94.200	90.300	72.400	74.100	0.820
93.400	90.300	72.000	74.100	0.821
92.800	90.300	71.600	74.100	0.821
91.700	90.200	71.200	74.100	0.821
90.500	90.200	70.500	74.100	0.822
89.700	90.200	70.100	74.100	0.822
88.900	90.100	69.500	74.100	0.823
88.100	90.100	69.200	74.100	0.823
87.300	90.100	68.800	74.200	0.823
86.700	90.100	68.300	74.200	0.824
86.000	90.000	68.000	74.200	0.824
85.200	90.000	67.300	74.200	0.824
84.600	90.000	66.900	74.200	0.825
83.900	90.000	66.500	74.200	0.825
83.100	90.000	66.000	74.200	0.825
82.300	89.900	65.600	74.300	0.826
81.700	89.900	65.400	74.300	0.826
81.000	89.900	65.100	74.300	0.826
80.200	89.900	64.600	74.300	0.827
79.500	89.900	64.200	74.300	0.827
79.000	89.800	63.600	74.300	0.827
78.200	89.800	63.100	74.300	0.828
77.500	89.800	62.800	74.400	0.828
77.100	89.800	62.400	74.400	0.828
76.400	89.800	62.000	74.400	0.829
75.600	89.800	61.600	74.400	0.829
75.200	89.700	61.300	74.400	0.829
74.700	89.700	61.200	74.400	0.830
74.300	89.700	61.100	74.500	0.830
73.900	89.700	61.000	74.500	0.830
73.700	89.700	60.800	74.500	0.830
73.800	89.700	60.200	74.500	0.831
73.800	89.700	59.900	74.500	0.831
73.500	89.700	59.500	74.500	0.831
73.300	89.700	58.900	74.600	0.831
72.900	89.700	58.800	74.600	0.832
72.300	89.700	58.900	74.600	0.832
71.600	89.700	59.300	74.600	0.832
70.800	89.700	59.400	74.600	0.832
70.100	89.600	59.000	74.600	0.833
69.400	89.600	58.100	74.700	0.833
68.900	89.600	57.500	74.700	0.833
68.400	89.600	57.300	74.700	0.834
68.100	89.600	57.600	74.700	0.834
67.800	89.600	57.900	74.700	0.834
67.500	89.500	59.200	74.700	0.834
67.500	89.500	62.100	74.700	0.835
68.100	89.500	65.400	74.800	0.835
69.400	89.500	69.600	74.800	0.836
70.600	89.500	72.200	74.900	0.837
73.200	89.600	73.800	75.000	0.837
79.600	89.600	76.900	75.100	0.838
87.200	89.600	82.000	75.400	0.841
94.200	89.700	86.400	75.500	0.842
96.400	89.700	88.600	75.500	0.842
97.700	89.800	90.200	75.600	0.842
101.700	89.800	91.800	75.700	0.842
103.300	89.900	94.300	75.700	0.842
104.600	89.900	96.700	75.800	0.843
105.500	90.000	98.500	75.800	0.843
107.400	90.000	100.000	75.900	0.842
109.000	90.100	101.900	75.900	0.842
109.500	90.100	103.400	75.900	0.843
112.200	90.100	104.700	76.000	0.843
113.100	90.200	105.800	76.000	0.843
113.900	90.200	106.800	76.000	0.843
114.700	90.200	107.200	76.100	0.843
114.900	90.200	106.800	76.100	0.843
114.400	90.200	106.400	76.100	0.844
113.500	90.200	106.000	76.100	0.844
112.800	90.200	105.500	76.100	0.844
111.900	90.200	104.900	76.100	0.844
110.800	90.200	104.200	76.100	0.844
109.700	90.100	102.600	76.100	0.844
108.400	90.100	100.500	76.100	0.844
106.600	90.100	97.500	76.000	0.844
103.900	90.000	93.200	76.000	0.844
100.000	90.000	88.000	75.900	0.844
94.600	89.900	82.300	75.800	0.844
92.800	89.800	77.800	75.700	0.843
92.700	89.800	75.900	75.600	0.843
90.600	89.700	75.200	75.600	0.842
89.600	89.700	73.800	75.500	0.842
90.600	89.600	72.400	75.400	0.842
91.200	89.600	71.300	75.400	0.841
91.100	89.600	70.600	75.400	0.841
91.300	89.600	70.600	75.400	0.841
91.500	89.600	71.100	75.400	0.841
91.000	89.600	71.300	75.400	0.841
90.200	89.600	71.600	75.400	0.841
89.500	89.600	71.600	75.400	0.842
88.700	89.500	71.200	75.400	0.842
87.700	89.500	70.500	75.400	0.843
86.800	89.500	70.000	75.400	0.843
86.100	89.400	69.500	75.400	0.843
85.300	89.400	68.800	75.500	0.844
84.500	89.400	68.300	75.500	0.844
83.800	89.400	67.900	75.500	0.845
83.200	89.300	67.100	75.500	0.845
82.500	89.300	66.300	75.500	0.845
81.700	89.300	66.000	75.500	0.846
80.900	89.300	65.300	75.500	0.846
80.200	89.200	64.900	75.500	0.846
79.400	89.200	64.800	75.500	0.847
78.500	89.200	64.100	75.600	0.847
77.700	89.200	63.500	75.600	0.847
77.100	89.100	63.200	75.600	0.848
76.300	89.100	62.400	75.600	0.848
75.600	89.100	61.600	75.600	0.848
74.900	89.000	61.300	75.600	0.849
74.300	89.000	61.200	75.600	0.849
73.600	89.000	60.600	75.600	0.849
72.900	89.000	59.900	75.600	0.849
72.400	88.900	59.300	75.600	0.850
71.800	88.900	58.800	75.600	0.850
71.400	88.900	58.600	75.600	0.850
71.100	88.900	58.900	75.600	0.850
71.000	88.800	59.100	75.600	0.851
70.800	88.800	58.600	75.600	0.851
70.600	88.800	58.400	75.600	0.851
70.300	88.800	58.000	75.600	0.851
70.400	88.800	57.400	75.600	0.851
69.800	88.700	56.700	75.600	0.852
69.200	88.700	56.100	75.600	0.852
68.300	88.700	56.200	75.600	0.852
67.400	88.700	56.800	75.600	0.852
66.600	88.600	56.500	75.500	0.852
65.900	88.600	55.400	75.500	0.853
65.200	88.600	54.600	75.500	0.853
65.000	88.500	54.200	75.500	0.853
78.100	88.600	53.900	75.500	0.853
80.200	88.600	53.700	75.500	0.852
81.300	88.600	54.100	75.500	0.852
82.100	88.700	55.900	75.500	0.851
83.500	88.700	58.700	75.500	0.851
82.200	88.700	62.400	75.500	0.851
80.700	88.800	66.100	75.500	0.851
79.800	88.800	68.000	75.600	0.851
79.700	88.900	68.700	75.600	0.851
81.800	88.900	72.500	75.700	0.851
83.600	89.100	79.100	75.800	0.851
85.500	89.200	84.600	75.900	0.851
87.300	89.200	87.300	75.900	0.851
87.700	89.200	89.200	75.900	0.852
90.300	89.100	90.700	76.000	0.852
94.200	89.100	91.900	76.000	0.852
97.800	89.100	93.000	76.000	0.853
99.300	89.100	93.600	76.000	0.853
101.500	89.100	94.400	76.000	0.853
103.700	89.000	95.700	76.000	0.853
104.800	89.000	97.300	76.000	0.853
106.100	89.000	98.900	76.000	0.853
106.800	89.000	99.600	75.900	0.854
107.400	88.900	100.200	75.900	0.854
107.500	88.900	100.300	75.900	0.854
107.200	88.900	100.500	75.900	0.854
107.000	88.800	100.600	75.900	0.854
106.300	88.800	99.900	75.800	0.854
105.600	88.700	99.400	75.800	0.854
104.900	88.700	98.600	75.700	0.854
103.700	88.600	97.400	75.700	0.854
102.400	88.600	95.200	75.600	0.854
100.600	88.500	92.500	75.600	0.854
97.700	88.400	88.600	75.500	0.854
93.800	88.400	83.700	75.400	0.854
88.800	88.300	78.200	75.300	0.853
86.700	88.200	73.400	75.200	0.853
85.800	88.100	71.300	75.100	0.853
85.500	88.000	71.200	75.000	0.852
85.600	88.000	71.000	74.900	0.852
85.900	87.900	70.100	74.900	0.852
86.800	87.900	69.000	74.800	0.851
87.500	87.900	68.200	74.800	0.851
88.200	87.800	68.000	74.800	0.851
87.900	87.800	68.100	74.700	0.851
87.400	87.800	67.900	74.700	0.851
86.800	87.700	68.500	74.700	0.851
85.900	87.700	68.700	74.700	0.851
84.700	87.700	68.200	74.700	0.852
83.800	87.600	67.900	74.700	0.852
83.100	87.600	67.400	74.700	0.852
82.500	87.500	67.100	74.600	0.853
81.700	87.500	66.700	74.600	0.853
81.200	87.500	66.200	74.600	0.853
80.800	87.400	65.800	74.600	0.854
80.400	87.400	65.600	74.600	0.854
80.100	87.300	65.600	74.600	0.854
79.700	87.300	65.300	74.600	0.854
79.100	87.300	64.600	74.600	0.854
78.600	87.200	64.400	74.600	0.855
78.000	87.200	64.200	74.600	0.855
77.300	87.200	63.800	74.600	0.855
76.700	87.100	63.200	74.500	0.855
75.800	87.100	62.800	74.500	0.856
75.100	87.100	62.400	74.500	0.856
74.400	87.000	62.100	74.500	0.856
73.700	87.000	61.800	74.500	0.856
73.000	87.000	61.200	74.500	0.856
72.400	87.000	60.600	74.500	0.857
71.900	86.900	60.400	74.500	0.857
71.500	86.900	59.900	74.500	0.857
71.200	86.900	59.800	74.500	0.857
71.100	86.800	60.000	74.400	0.857
71.000	86.800	59.900	74.400	0.858
71.000	86.800	59.600	74.400	0.858
70.800	86.700	59.200	74.400	0.858
70.700	86.700	58.900	74.400	0.858
70.400	86.700	58.400	74.400	0.858
69.800	86.700	58.000	74.400	0.858
69.000	86.700	58.200	74.400	0.859
68.100	86.600	58.400	74.400	0.859
67.300	86.600	58.400	74.400	0.859
66.600	86.600	57.300	74.400	0.859
65.900	86.500	55.900	74.400	0.859
65.300	86.500	55.100	74.400	0.859
64.900	86.500	54.700	74.300	0.860
64.500	86.400	54.800	74.300	0.860
64.100	86.400	55.100	74.300	0.860
63.900	86.400	56.300	74.300	0.860
64.000	86.400	59.100	74.300	0.860
64.600	86.300	62.100	74.300	0.861
65.900	86.300	65.600	74.300	0.861
66.900	86.300	67.900	74.400	0.862
69.400	86.300	68.300	74.400	0.862
75.100	86.300	70.500	74.500	0.863
82.100	86.400	76.100	74.500	0.863
88.600	86.700	82.500	74.700	0.861
93.700	86.800	87.300	74.700	0.861
97.000	86.800	89.200	74.700	0.861
99.900	86.800	90.300	74.700	0.861
102.600	86.800	92.000	74.700	0.861
104.300	86.800	93.800	74.700	0.861
103.800	86.800	94.700	74.700	0.861
104.100	86.800	95.200	74.700	0.861
103.900	86.700	96.200	74.700	0.861
104.000	86.700	97.500	74.700	0.861
104.000	86.700	98.800	74.600	0.861
105.200	86.700	100.300	74.600	0.861
106.200	86.600	101.500	74.600	0.861
107.200	86.600	102.200	74.600	0.861
108.000	86.600	102.300	74.600	0.861
108.600	86.500	102.400	74.500	0.861
108.800	86.500	102.100	74.500	0.861
108.400	86.500	101.600	74.500	0.861
107.900	86.400	100.700	74.400	0.861
106.800	86.400	99.500	74.400	0.861
105.500	86.300	98.200	74.400	0.861
103.800	86.300	96.200	74.300	0.861
101.400	86.300	93.000	74.300	0.861
98.200	86.200	89.100	74.200	0.861
94.000	86.100	84.300	74.200	0.861
89.000	86.100	78.800	74.100	0.861
88.000	86.000	74.500	74.000	0.861
87.000	85.900	73.800	74.000	0.861
87.100	85.900	74.900	74.000	0.861
87.500	85.900	75.000	73.900	0.861
88.800	85.900	74.100	73.900	0.861
89.600	85.800	73.400	73.900	0.861
90.700	85.800	73.100	73.900	0.861
90.800	85.800	72.600	73.900	0.861
90.700	85.800	72.800	73.900	0.861
89.900	85.800	73.200	73.900	0.862
89.200	85.800	72.700	73.900	0.862
88.300	85.700	72.900	73.900	0.862
87.300	85.700	72.700	73.900	0.862
86.400	85.700	72.300	73.900	0.863
85.700	85.700	72.200	73.900	0.863
85.200	85.600	71.600	73.900	0.863
84.600	85.600	71.100	73.900	0.864
84.100	85.600	70.800	73.900	0.864
83.800	85.600	70.400	73.900	0.864
83.400	85.600	70.200	73.900	0.864
82.700	85.500	69.800	73.900	0.864
82.300	85.500	69.700	74.000	0.865
81.800	85.500	69.500	74.000	0.865
81.200	85.500	68.900	74.000	0.865
80.600	85.500	68.600	74.000	0.865
80.100	85.500	68.300	74.000	0.866
79.500	85.500	68.200	74.000	0.866
79.000	85.400	67.900	74.000	0.866
78.400	85.400	67.500	74.000	0.866
77.800	85.400	66.800	74.000	0.866
77.300	85.400	66.500	74.000	0.867
76.700	85.400	66.200	74.000	0.867
76.200	85.400	65.900	74.000	0.867
75.900	85.400	65.900	74.000	0.867
75.800	85.400	65.800	74.100	0.867
75.600	85.400	65.800	74.100	0.868
75.300	85.400	65.200	74.100	0.868
75.200	85.400	64.900	74.100	0.868
75.000	85.400	64.500	74.100	0.868
74.500	85.400	64.100	74.100	0.868
73.600	85.400	63.900	74.100	0.868
72.800	85.300	63.600	74.100	0.869
72.100	85.300	63.700	74.100	0.869
71.400	85.300	63.900	74.200	0.869
70.700	85.300	62.600	74.200	0.869
70.300	85.300	61.300	74.200	0.870
69.900	85.300	61.200	74.200	0.870
69.500	85.300	61.100	74.200	0.870
69.100	85.300	61.200	74.200	0.870
68.900	85.300	61.600	74.200	0.870
68.700	85.300	63.000	74.200	0.871
68.700	85.200	65.800	74.300	0.871
69.700	85.200	69.100	74.300	0.871
71.100	85.300	71.900	74.300	0.872
72.800	85.300	72.600	74.400	0.873
77.300	85.300	73.900	74.500	0.873
84.000	85.400	77.800	74.500	0.873
90.900	85.500	84.100	74.600	0.873
95.800	85.600	89.400	74.700	0.873
100.000	85.700	92.300	74.800	0.873
101.600	85.800	93.500	74.900	0.873
103.600	85.900	94.600	75.000	0.873
106.400	86.100	96.700	75.100	0.873
108.300	86.200	99.600	75.200	0.873
108.100	86.200	101.900	75.300	0.873
109.400	86.300	103.000	75.300	0.873
110.600	86.400	103.400	75.400	0.873
111.300	86.400	104.400	75.400	0.873
112.400	86.400	106.200	75.500	0.873
113.600	86.500	107.800	75.500	0.873
114.400	86.500	108.600	75.600	0.874
114.900	86.600	108.700	75.600	0.874
115.200	86.600	108.400	75.700	0.874
115.000	86.600	108.000	75.700	0.874
114.400	86.600	107.800	75.700	0.874
113.800	86.600	107.400	75.700	0.874
112.900	86.600	106.600	75.700	0.874
111.800	86.600	105.500	75.700	0.874
110.400	86.600	103.700	75.700	0.874
108.700	86.600	101.500	75.700	0.874
106.200	86.600	98.200	75.600	0.874
102.700	86.500	93.600	75.600	0.874
98.400	86.500	88.600	75.500	0.874
94.200	86.400	82.800	75.400	0.873
93.600	86.300	79.100	75.400	0.873
92.700	86.300	78.900	75.300	0.872
92.000	86.200	80.000	75.200	0.872
91.900	86.100	79.400	75.100	0.872
92.900	86.100	78.300	75.100	0.872
93.500	86.100	77.600	75.000	0.872
93.700	86.100	77.600	75.000	0.871
94.000	86.100	78.500	75.000	0.871
93.900	86.100	79.300	75.000	0.871
93.200	86.100	79.700	75.000	0.872
92.600	86.100	79.700	75.100	0.872
91.900	86.100	79.100	75.100	0.872
91.000	86.100	78.700	75.100	0.872
90.100	86.100	78.000	75.100	0.873
89.300	86.100	77.100	75.200	0.873
88.600	86.100	76.700	75.200	0.873
87.900	86.100	76.200	75.200	0.874
87.100	86.100	75.800	75.200	0.874
86.500	86.100	75.500	75.200	0.874
86.000	86.000	75.200	75.300	0.875
85.500	86.000	74.800	75.300	0.875
84.900	86.000	74.100	75.300	0.875
84.200	86.000	73.400	75.300	0.875
83.500	86.000	73.100	75.300	0.876
82.800	86.000	72.400	75.300	0.876
82.100	86.000	72.200	75.300	0.876
81.500	86.000	71.800	75.400	0.876
80.800	86.000	71.100	75.400	0.877
80.100	86.000	70.400	75.400	0.877
79.500	86.000	70.000	75.400	0.877
78.900	86.000	69.600	75.400	0.877
78.300	86.000	69.400	75.500	0.878
77.800	86.000	69.200	75.500	0.878
77.600	86.000	69.300	75.500	0.878
77.300	86.000	69.000	75.500	0.878
77.200	86.000	68.500	75.500	0.879
77.100	86.000	68.100	75.600	0.879
76.900	86.000	67.600	75.600	0.879
76.500	86.000	66.700	75.600	0.879
75.900	86.000	66.300	75.600	0.879
75.100	86.000	66.000	75.700	0.880
74.400	86.000	65.800	75.700	0.880
73.400	86.000	65.800	75.700	0.880
72.700	86.000	65.400	75.700	0.880
72.100	86.000	64.300	75.700	0.880
71.600	86.000	63.200	75.800	0.881
71.100	86.000	63.200	75.800	0.881
70.800	86.000	63.700	75.800	0.881
70.400	86.000	63.700	75.800	0.881
70.100	86.000	64.500	75.900	0.882
70.100	86.000	66.600	75.900	0.882
70.700	86.000	69.600	75.900	0.883
72.100	86.100	72.800	76.000	0.883
73.200	86.100	74.200	76.100	0.884
76.300	86.100	74.900	76.100	0.884
84.400	86.200	77.600	76.200	0.884
90.600	86.300	83.800	76.300	0.885
96.700	86.500	89.900	76.900	0.889
100.300	86.600	93.300	77.000	0.890
102.300	86.700	94.600	77.100	0.890
104.700	86.800	95.500	77.200	0.890
107.000	86.900	97.300	77.300	0.890
108.300	87.000	100.300	77.400	0.890
109.700	87.100	102.900	77.500	0.890
110.900	87.200	104.600	77.600	0.890
112.400	87.300	106.200	77.600	0.890
113.600	87.300	107.200	77.700	0.889
114.400	87.400	108.400	77.800	0.889
115.300	87.500	109.400	77.800	0.889
116.300	87.600	110.000	77.900	0.889
116.500	87.600	110.500	77.900	0.890
116.500	87.700	109.900	78.000	0.890
116.000	87.700	109.600	78.000	0.890
115.300	87.700	109.000	78.100	0.890
114.400	87.800	108.100	78.100	0.890
113.500	87.800	107.400	78.100	0.890
112.300	87.800	106.400	78.200	0.890
111.000	87.800	104.900	78.200	0.890
109.200	87.800	102.300	78.200	0.890
106.600	87.800	99.100	78.200	0.890
103.300	87.800	94.800	78.200	0.890
98.400	87.800	89.800	78.100	0.890
94.500	87.800	84.300	78.100	0.890
95.400	87.700	80.800	78.000	0.889
93.800	87.700	80.600	78.000	0.889
92.400	87.700	81.000	78.000	0.889
92.800	87.700	80.200	77.900	0.889
93.900	87.700	79.500	77.900	0.889
94.200	87.700	79.500	78.000	0.889
94.400	87.800	80.100	78.000	0.889
94.800	87.800	80.900	78.000	0.889
94.600	87.800	81.500	78.100	0.889
94.100	87.900	81.500	78.100	0.889
93.300	87.900	81.300	78.200	0.889
92.500	87.900	80.800	78.200	0.890
91.700	87.900	80.300	78.300	0.890
90.800	87.900	79.900	78.300	0.890
90.000	88.000	79.500	78.400	0.891
89.300	88.000	79.000	78.400	0.891
88.600	88.000	78.100	78.400	0.892
88.000	88.000	77.500	78.500	0.892
87.400	88.000	76.900	78.500	0.892
86.800	88.000	76.300	78.500	0.892
86.200	88.000	75.900	78.600	0.893
85.500	88.100	75.600	78.600	0.893
84.900	88.100	75.100	78.600	0.893
84.300	88.100	74.500	78.700	0.893
83.500	88.100	73.900	78.700	0.894
82.800	88.100	73.600	78.700	0.894
82.200	88.100	73.100	78.800	0.894
81.500	88.100	72.500	78.800	0.894
80.800	88.100	72.100	78.800	0.895
80.100	88.100	71.500	78.900	0.895
79.600	88.100	71.000	78.900	0.895
79.100	88.200	70.400	78.900	0.895
78.600	88.200	70.200	78.900	0.895
78.300	88.200	70.200	79.000	0.896
78.000	88.200	70.300	79.000	0.896
77.800	88.200	69.900	79.000	0.896
77.700	88.200	69.200	79.100	0.896
77.600	88.200	68.900	79.100	0.896
77.100	88.300	68.400	79.100	0.897
76.500	88.300	68.100	79.200	0.897
75.700	88.300	67.400	79.200	0.897
75.000	88.300	67.100	79.200	0.897
74.100	88.300	66.700	79.300	0.897
73.300	88.300	66.500	79.300	0.897
72.600	88.300	65.800	79.300	0.898
72.000	88.400	64.800	79.300	0.898
71.600	88.400	64.200	79.400	0.898
71.200	88.400	64.200	79.400	0.898
70.800	88.400	64.300	79.400	0.898
70.700	88.400	65.100	79.400	0.899
70.600	88.400	67.100	79.500	0.899
70.700	88.400	69.600	79.500	0.899
72.100	88.400	72.300	79.600	0.900
73.400	88.500	74.400	79.600	0.900
75.300	88.500	74.800	79.700	0.901
81.500	88.600	76.400	79.800	0.901
89.900	88.700	82.000	79.900	0.901
97.600	89.300	89.200	80.400	0.900
98.800	89.400	93.700	80.400	0.900
102.100	89.400	95.600	80.500	0.900
104.700	89.500	96.000	80.500	0.900
107.200	89.500	97.000	80.600	0.900
107.800	89.500	99.500	80.600	0.900
109.600	89.600	102.200	80.600	0.900
111.200	89.600	104.300	80.700	0.901
111.300	89.600	105.500	80.700	0.901
112.100	89.700	106.500	80.800	0.901
114.000	89.700	107.900	80.800	0.901
114.800	89.700	108.900	80.900	0.901
115.000	89.800	109.700	80.900	0.901
115.700	89.800	110.000	80.900	0.901
115.900	89.900	109.700	81.000	0.901
115.400	89.900	109.300	81.000	0.901
114.700	89.900	108.700	81.000	0.901
113.800	89.900	108.000	81.100	0.901
112.800	90.000	107.000	81.100	0.901
111.600	90.000	105.900	81.100	0.901
110.300	90.000	104.500	81.100	0.901
108.300	90.000	102.300	81.100	0.901
105.900	90.000	98.900	81.100	0.901
102.300	90.000	94.300	81.100	0.901
97.000	90.000	89.000	81.100	0.901
95.100	90.000	83.800	81.100	0.901
95.500	90.000	81.200	81.100	0.901
93.700	90.000	81.600	81.100	0.901
92.500	90.000	81.800	81.100	0.901
93.500	90.000	80.900	81.100	0.901
94.300	90.000	80.200	81.200	0.901
94.400	90.100	80.600	81.200	0.901
94.600	90.100	81.600	81.200	0.901
94.800	90.100	82.200	81.200	0.901
94.500	90.100	82.500	81.300	0.902
93.700	90.100	82.800	81.300	0.902
93.200	90.200	82.600	81.400	0.902
92.500	90.200	81.900	81.400	0.903
91.600	90.200	81.400	81.400	0.903
90.800	90.200	80.900	81.500	0.903
90.200	90.200	80.300	81.500	0.903
89.400	90.200	80.000	81.500	0.904
88.800	90.200	79.400	81.500	0.904
88.300	90.200	78.800	81.600	0.904
87.700	90.200	78.200	81.600	0.904
87.000	90.300	77.700	81.600	0.904
86.400	90.300	77.100	81.700	0.905
85.800	90.300	76.700	81.700	0.905
85.000	90.300	76.300	81.700	0.905
84.400	90.300	76.000	81.700	0.905
83.700	90.300	75.200	81.800	0.905
83.100	90.300	74.700	81.800	0.906
82.300	90.300	74.300	81.800	0.906
81.600	90.300	73.900	81.800	0.906
81.100	90.300	73.100	81.800	0.906
80.300	90.300	72.500	81.900	0.906
79.800	90.300	72.100	81.900	0.906
79.200	90.300	71.600	81.900	0.907
78.800	90.400	71.300	81.900	0.907
78.500	90.400	71.100	81.900	0.907
78.000	90.400	71.000	82.000	0.907
78.400	90.400	70.700	82.000	0.907
78.100	90.400	70.400	82.000	0.907
77.700	90.400	70.000	82.000	0.907
77.500	90.400	69.300	82.000	0.907
76.600	90.400	68.600	82.000	0.907
76.000	90.400	68.000	82.100	0.908
75.300	90.400	67.700	82.100	0.908
74.300	90.400	67.200	82.100	0.908
73.300	90.400	66.800	82.100	0.908
72.600	90.400	66.300	82.100	0.908
72.200	90.400	65.400	82.100	0.908
71.700	90.400	64.600	82.100	0.908
71.300	90.400	64.400	82.100	0.908
71.100	90.400	64.800	82.100	0.908
70.800	90.400	65.700	82.200	0.908
70.700	90.400	67.200	82.200	0.909
70.700	90.500	69.300	82.200	0.909
72.200	90.500	72.000	82.300	0.909
73.600	90.500	74.400	82.300	0.909
74.800	90.500	75.100	82.300	0.909
80.200	90.500	76.100	82.300	0.909
89.600	90.600	80.800	82.400	0.909
96.600	90.700	88.000	82.400	0.909
97.600	90.700	92.800	82.500	0.909
101.300	90.800	95.100	82.500	0.909
105.700	90.800	96.300	82.600	0.909
106.900	90.900	97.500	82.600	0.909
107.200	90.900	98.900	82.600	0.909
108.700	90.900	100.800	82.600	0.909
110.000	90.900	102.800	82.600	0.909
110.700	90.900	104.500	82.700	0.909
111.000	90.900	106.100	82.700	0.909
112.000	90.900	107.200	82.700	0.909
113.400	90.900	108.300	82.700	0.909
114.000	91.000	108.700	82.700	0.910
114.200	91.000	109.100	82.700	0.910
114.300	91.000	108.700	82.700	0.910
113.800	91.000	108.100	82.700	0.910
112.800	91.000	107.400	82.700	0.910
111.900	90.900	106.400	82.700	0.910
111.100	90.900	105.500	82.700	0.910
109.800	90.900	104.600	82.700	0.910
108.300	90.900	103.000	82.700	0.910
106.200	90.900	100.500	82.700	0.910
103.200	90.800	96.400	82.600	0.910
98.600	90.800	91.400	82.600	0.910
93.900	90.700	85.800	82.500	0.910
94.200	90.700	80.900	82.500	0.909
93.700	90.600	79.900	82.400	0.909
92.200	90.600	81.200	82.400	0.909
91.800	90.600	81.700	82.400	0.909
93.300	90.600	80.700	82.400	0.909
93.700	90.600	79.500	82.400	0.909
93.800	90.600	79.500	82.400	0.909
94.100	90.600	80.900	82.400	0.909
94.100	90.600	82.100	82.400	0.909
93.400	90.600	82.500	82.400	0.909
92.700	90.600	82.400	82.400	0.910
92.200	90.600	82.200	82.400	0.910
91.300	90.600	81.600	82.500	0.910
90.400	90.600	80.900	82.500	0.910
89.700	90.600	80.700	82.500	0.910
89.200	90.600	80.100	82.500	0.910
88.400	90.600	79.600	82.500	0.911
87.900	90.600	79.200	82.500	0.911
87.500	90.500	78.600	82.500	0.911
86.900	90.500	78.100	82.500	0.911
86.300	90.500	77.800	82.500	0.911
85.800	90.500	77.200	82.500	0.911
85.100	90.500	76.600	82.500	0.911
84.400	90.500	76.300	82.500	0.911
83.700	90.500	75.800	82.500	0.912
83.000	90.500	75.300	82.500	0.912
82.200	90.500	74.500	82.500	0.912
81.400	90.500	73.700	82.500	0.912
80.800	90.500	73.300	82.500	0.912
80.200	90.500	72.900	82.500	0.912
79.500	90.500	72.200	82.500	0.912
78.900	90.500	71.800	82.500	0.912
78.600	90.500	71.400	82.500	0.912
78.100	90.400	71.000	82.500	0.913
77.900	90.400	71.000	82.500	0.913
77.600	90.400	71.000	82.600	0.913
77.300	90.400	70.600	82.600	0.913
77.800	90.400	70.200	82.600	0.913
77.300	90.400	69.700	82.600	0.913
76.900	90.400	68.600	82.600	0.913
76.000	90.400	67.900	82.600	0.913
75.300	90.400	67.300	82.600	0.913
74.300	90.400	66.700	82.600	0.913
73.200	90.400	66.500	82.600	0.913
72.300	90.400	66.600	82.600	0.913
71.600	90.400	66.100	82.600	0.914
71.000	90.400	65.000	82.600	0.914
70.500	90.400	63.900	82.600	0.914
70.200	90.400	63.500	82.600	0.914
70.000	90.400	63.800	82.600	0.914
69.700	90.300	64.200	82.600	0.914
69.700	90.300	65.800	82.600	0.914
69.700	90.300	68.300	82.600	0.914
71.100	90.300	70.800	82.600	0.914
72.400	90.400	73.400	82.600	0.915
73.200	90.400	73.700	82.700	0.915
77.600	90.400	73.100	82.700	0.915
86.000	90.400	76.800	82.700	0.914
94.000	90.500	84.600	82.700	0.914
96.600	90.500	91.400	82.700	0.914
100.900	90.500	95.500	82.700	0.914
103.600	90.500	96.600	82.700	0.914
107.500	90.500	96.800	82.700	0.914
107.100	90.500	98.000	82.700	0.914
108.700	90.500	99.800	82.700	0.914
109.200	90.500	101.600	82.700	0.914
109.400	90.500	102.900	82.600	0.914
109.200	90.400	103.600	82.600	0.914
109.600	90.400	104.300	82.600	0.914
109.700	90.400	105.200	82.600	0.914
110.100	90.400	105.900	82.600	0.914
110.000	90.300	105.900	82.600	0.914
110.400	90.300	105.700	82.500	0.914
110.200	90.300	105.200	82.500	0.914
109.800	90.300	104.800	82.500	0.914
109.400	90.300	104.500	82.500	0.914
108.800	90.200	104.000	82.500	0.914
107.700	90.200	102.900	82.500	0.914
106.100	90.200	100.700	82.400	0.914
103.500	90.200	97.700	82.400	0.914
100.000	90.100	93.600	82.400	0.914
95.000	90.100	88.500	82.400	0.914
91.200	90.100	82.600	82.400	0.914
91.000	90.100	78.400	82.300	0.914
90.600	90.100	78.200	82.300	0.914
89.700	90.000	79.700	82.300	0.914
89.900	90.000	80.000	82.300	0.914
91.300	90.000	79.000	82.300	0.914
92.100	90.000	78.100	82.300	0.914
92.200	90.000	78.100	82.300	0.914
92.100	90.000	78.300	82.300	0.914
91.800	90.000	78.800	82.300	0.914
91.200	90.000	79.500	82.300	0.914
90.300	90.000	80.100	82.300	0.915
89.600	89.900	79.800	82.300	0.915
88.700	89.900	79.300	82.300	0.915
87.800	89.900	78.700	82.200	0.915
87.100	89.900	78.300	82.200	0.915
86.700	89.900	78.200	82.200	0.915
86.300	89.900	77.700	82.200	0.915
85.900	89.900	77.200	82.200	0.915
85.500	89.800	76.700	82.200	0.915
85.200	89.800	76.100	82.200	0.915
84.600	89.800	75.900	82.200	0.915
83.900	89.800	75.400	82.200	0.915
83.300	89.800	75.100	82.200	0.915
82.600	89.800	74.600	82.200	0.916
81.900	89.800	73.700	82.200	0.916
81.100	89.800	73.200	82.200	0.916
80.400	89.800	72.500	82.200	0.916
79.700	89.800	72.000	82.200	0.916
79.000	89.800	71.300	82.200	0.916
78.500	89.700	70.900	82.200	0.916
78.000	89.700	70.500	82.200	0.916
77.500	89.700	70.200	82.200	0.916
77.200	89.700	70.200	82.200	0.916
77.000	89.700	70.200	82.200	0.916
77.000	89.700	70.300	82.200	0.916
76.800	89.700	69.900	82.200	0.916
76.600	89.700	69.300	82.200	0.916
76.400	89.700	68.700	82.200	0.916
75.900	89.700	68.000	82.200	0.916
75.300	89.700	67.300	82.200	0.916
74.600	89.700	66.800	82.200	0.916
73.500	89.700	66.300	82.200	0.916
72.500	89.700	66.500	82.200	0.916
71.800	89.600	66.200	82.200	0.916
71.000	89.600	64.900	82.100	0.916
70.300	89.600	63.700	82.100	0.916
70.100	89.600	62.900	82.100	0.916
69.800	89.600	62.700	82.100	0.916
69.400	89.600	62.900	82.100	0.917
69.300	89.600	62.900	82.100	0.917
69.300	89.600	64.300	82.100	0.917
69.500	89.600	66.600	82.100	0.917
70.500	89.600	69.000	82.100	0.917
71.900	89.600	72.100	82.100	0.917
71.900	89.600	72.800	82.100	0.917
75.600	89.600	71.600	82.100	0.916
83.700	89.600	73.500	82.100	0.916
89.900	89.600	80.700	82.100	0.916
96.200	89.600	89.500	82.100	0.916
101.400	89.600	95.300	82.100	0.916
104.800	89.600	97.800	82.100	0.916
107.800	89.600	98.200	82.100	0.916
109.300	89.600	98.300	82.100	0.916
109.500	89.600	99.200	82.100	0.916
108.800	89.600	99.900	82.100	0.916
108.400	89.600	101.100	82.100	0.916
108.000	89.600	102.300	82.100	0.916
108.600	89.600	103.400	82.100	0.916
108.700	89.600	104.700	82.000	0.916
109.700	89.500	106.100	82.000	0.916
110.200	89.500	106.500	82.000	0.916
111.300	89.500	106.400	82.000	0.916
111.400	89.500	106.200	82.000	0.916
111.700	89.500	105.900	82.000	0.916
111.600	89.500	105.700	82.000	0.916
110.800	89.500	105.000	81.900	0.916
109.600	89.400	103.800	81.900	0.916
108.200	89.400	102.600	81.900	0.916
106.100	89.400	100.300	81.900	0.916
103.000	89.400	97.000	81.900	0.916
98.500	89.400	92.400	81.900	0.916
93.600	89.300	87.000	81.800	0.916
92.400	89.300	82.000	81.800	0.916
91.100	89.300	79.700	81.800	0.916
91.200	89.300	81.000	81.800	0.916
91.300	89.300	82.100	81.800	0.916
92.200	89.300	81.700	81.800	0.916
93.200	89.300	80.900	81.800	0.916
94.100	89.300	80.600	81.800	0.916
94.300	89.300	81.100	81.800	0.916
94.200	89.300	81.600	81.800	0.916
93.600	89.300	81.400	81.800	0.916
92.800	89.200	81.300	81.800	0.916
92.100	89.200	81.400	81.800	0.916
91.100	89.200	81.200	81.800	0.916
90.300	89.200	81.100	81.800	0.916
89.400	89.200	80.500	81.800	0.916
89.000	89.200	80.200	81.800	0.917
88.400	89.200	79.800	81.800	0.917
88.000	89.200	79.300	81.800	0.917
87.600	89.200	78.800	81.800	0.917
87.200	89.200	78.600	81.800	0.917
86.700	89.200	78.000	81.800	0.917
86.200	89.200	77.300	81.800	0.917
85.600	89.200	77.200	81.800	0.917
85.100	89.200	76.800	81.800	0.917
84.400	89.200	76.500	81.800	0.917
83.700	89.200	75.800	81.800	0.917
83.000	89.200	75.200	81.800	0.917
82.300	89.200	74.500	81.800	0.917
81.500	89.200	73.900	81.700	0.917
80.900	89.200	73.600	81.700	0.917
80.600	89.200	73.200	81.700	0.917
80.200	89.200	72.900	81.700	0.917
79.900	89.200	73.200	81.800	0.917
79.800	89.200	73.200	81.800	0.917
79.700	89.200	72.700	81.800	0.917
79.400	89.200	71.900	81.800	0.917
79.200	89.200	71.200	81.800	0.917
78.800	89.200	70.500	81.800	0.917
78.000	89.200	70.100	81.800	0.917
77.100	89.200	69.900	81.800	0.917
76.300	89.200	69.900	81.800	0.917
75.400	89.200	69.700	81.800	0.917
74.600	89.100	69.200	81.800	0.917
73.900	89.100	67.700	81.800	0.917
73.400	89.100	66.400	81.800	0.917
73.100	89.100	66.000	81.800	0.917
72.800	89.100	65.600	81.800	0.917
72.500	89.100	65.800	81.800	0.917
72.400	89.100	66.300	81.800	0.917
72.400	89.100	67.700	81.800	0.917
72.500	89.200	70.000	81.800	0.918
74.000	89.200	73.000	81.800	0.918
74.900	89.200	75.500	81.900	0.918
75.800	89.200	75.200	81.900	0.918
80.800	89.200	74.500	81.900	0.918
87.800	89.300	77.500	81.900	0.917
95.000	89.400	85.500	82.000	0.917
100.900	89.500	94.200	82.000	0.917
105.800	89.500	99.100	82.100	0.917
109.300	89.600	100.900	82.200	0.917
112.500	89.600	102.000	82.200	0.917
114.600	89.700	103.600	82.200	0.917
116.000	89.700	105.500	82.300	0.917
115.400	89.800	107.000	82.300	0.917
116.100	89.800	108.200	82.300	0.917
116.500	89.800	109.400	82.400	0.917
117.000	89.900	110.800	82.400	0.917
117.500	89.900	112.300	82.400	0.917
118.400	89.900	113.500	82.500	0.917
119.300	89.900	114.100	82.500	0.917
119.800	90.000	114.500	82.500	0.917
120.300	90.000	114.600	82.500	0.917
120.400	90.000	114.500	82.600	0.917
120.200	90.000	114.400	82.600	0.917
119.700	90.100	113.800	82.600	0.917
119.100	90.100	112.900	82.600	0.917
118.000	90.100	112.200	82.700	0.917
116.500	90.100	110.900	82.700	0.917
114.300	90.200	108.900	82.700	0.917
111.100	90.200	105.500	82.700	0.917
106.700	90.200	100.800	82.700	0.917
101.100	90.200	94.700	82.700	0.917
99.200	90.200	88.600	82.700	0.917
98.300	90.200	85.700	82.700	0.917
97.900	90.200	87.300	82.700	0.917
97.900	90.200	89.500	82.800	0.917
99.000	90.200	89.500	82.800	0.917
100.400	90.300	88.500	82.800	0.917
101.100	90.300	88.200	82.800	0.917
101.300	90.300	88.500	82.900	0.917
101.500	90.400	89.600	82.900	0.918
101.200	90.400	90.200	83.000	0.918
100.400	90.400	90.100	83.000	0.918
99.500	90.400	89.900	83.000	0.918
98.600	90.500	89.300	83.100	0.918
97.600	90.500	88.700	83.100	0.918
96.600	90.500	87.900	83.100	0.918
95.700	90.500	87.100	83.100	0.918
95.000	90.600	86.700	83.200	0.918
94.300	90.600	86.200	83.200	0.918
93.800	90.600	85.600	83.200	0.918
93.100	90.600	85.000	83.200	0.918
92.500	90.600	84.600	83.200	0.918
91.800	90.700	83.800	83.300	0.918
91.100	90.700	83.200	83.300	0.919
90.300	90.700	82.700	83.300	0.919
89.600	90.700	82.100	83.300	0.919
88.800	90.700	81.500	83.400	0.919
88.100	90.800	81.000	83.400	0.919
87.400	90.800	80.200	83.400	0.919
86.700	90.800	79.500	83.400	0.919
86.200	90.800	79.100	83.400	0.919
85.900	90.800	78.600	83.500	0.919
85.600	90.800	78.600	83.500	0.919
85.300	90.900	78.800	83.500	0.919
85.000	90.900	78.500	83.500	0.919
84.700	90.900	77.800	83.600	0.919
84.400	90.900	76.900	83.600	0.919
83.800	91.000	76.600	83.600	0.919
83.200	91.000	76.200	83.600	0.919
82.500	91.000	75.600	83.700	0.919
81.600	91.000	75.100	83.700	0.919
80.600	91.000	74.800	83.700	0.919
79.800	91.100	74.100	83.700	0.919
79.200	91.100	72.900	83.700	0.919
78.700	91.100	71.700	83.800	0.920
78.200	91.100	71.400	83.800	0.920
77.800	91.100	71.800	83.800	0.920
77.600	91.100	72.000	83.800	0.920
77.400	91.200	72.000	83.800	0.920
77.200	91.200	73.000	83.900	0.920
77.500	91.200	75.500	83.900	0.920
78.900	91.200	78.300	84.000	0.920
79.800	91.300	80.100	84.000	0.921
80.900	91.300	79.900	84.100	0.921
87.200	91.400	79.600	84.200	0.921
94.500	91.500	83.400	84.200	0.920
101.700	91.600	91.900	84.300	0.920
107.300	91.800	99.400	84.400	0.920
110.400	91.900	103.600	84.500	0.920
113.800	92.100	104.800	84.700	0.920
116.600	92.200	105.400	84.800	0.920
119.200	92.300	107.800	84.900	0.920
120.200	92.400	111.200	84.900	0.920
121.200	92.500	113.600	85.000	0.919
123.000	92.500	115.300	85.100	0.920
124.300	92.600	117.200	85.200	0.920
124.900	92.700	119.000	85.300	0.920
126.200	92.700	120.100	85.300	0.920
127.400	92.800	120.700	85.400	0.920
127.600	92.900	121.200	85.500	0.920
128.000	93.000	121.900	85.600	0.920
128.100	93.000	122.000	85.600	0.920
127.800	93.100	121.500	85.700	0.920
127.100	93.200	121.300	85.800	0.920
126.600	93.300	120.900	85.800	0.920
126.000	93.300	120.300	85.900	0.920
125.000	93.400	119.400	85.900	0.920
123.600	93.400	117.800	86.000	0.920
121.600	93.500	115.500	86.000	0.920
118.600	93.500	112.500	86.100	0.920
114.200	93.500	108.100	86.100	0.920
108.100	93.600	102.800	86.100	0.920
104.600	93.600	96.700	86.100	0.920
104.800	93.600	91.700	86.100	0.920
102.800	93.600	91.400	86.100	0.920
101.600	93.600	93.300	86.100	0.920
102.700	93.700	93.300	86.200	0.920
104.300	93.700	92.800	86.300	0.920
104.900	93.800	93.800	86.300	0.920
105.400	93.900	94.900	86.400	0.920
105.800	93.900	95.400	86.400	0.920
105.700	94.000	95.400	86.500	0.920
104.800	94.000	94.700	86.600	0.921
103.900	94.100	94.200	86.600	0.921
102.800	94.100	93.700	86.700	0.921
101.600	94.200	92.900	86.800	0.921
100.300	94.200	92.800	86.800	0.921
99.400	94.200	92.100	86.900	0.922
98.500	94.300	90.800	86.900	0.922
97.500	94.300	89.900	86.900	0.922
96.800	94.400	89.200	87.000	0.922
96.100	94.400	88.600	87.000	0.922
95.300	94.400	87.700	87.100	0.922
94.600	94.500	87.000	87.100	0.922
93.800	94.500	86.300	87.100	0.922
93.000	94.500	85.500	87.200	0.922
92.100	94.600	84.900	87.200	0.922
91.300	94.600	84.100	87.300	0.922
90.400	94.600	83.300	87.300	0.922
89.700	94.700	82.600	87.300	0.923
89.000	94.700	82.100	87.400	0.923
88.300	94.700	81.800	87.400	0.923
87.600	94.700	81.000	87.400	0.923
86.900	94.800	80.300	87.500	0.923
86.500	94.800	80.100	87.500	0.923
86.100	94.800	79.900	87.500	0.923
85.800	94.900	79.900	87.600	0.923
85.800	94.900	79.800	87.600	0.923
85.700	94.900	79.000	87.600	0.923
85.300	95.000	78.300	87.700	0.923
85.000	95.000	78.000	87.700	0.923
84.300	95.000	77.700	87.700	0.923
83.600	95.100	77.000	87.800	0.923
82.800	95.100	76.200	87.800	0.923
81.900	95.100	75.600	87.800	0.923
80.900	95.100	75.300	87.900	0.924
80.200	95.100	74.300	87.900	0.924
79.600	95.200	73.100	87.900	0.924
79.000	95.200	72.800	87.900	0.924
78.600	95.200	73.200	88.000	0.924
78.300	95.300	73.600	88.000	0.924
78.000	95.300	73.100	88.000	0.924
77.800	95.300	73.600	88.100	0.924
78.000	95.400	75.700	88.100	0.924
79.200	95.400	78.300	88.200	0.925
80.400	95.400	80.800	88.300	0.925
81.100	95.500	80.900	88.300	0.925
85.700	95.500	80.300	88.400	0.925
94.300	95.600	83.100	88.500	0.925
104.200	95.800	90.500	88.500	0.924
105.900	95.900	99.000	88.600	0.924
109.900	96.000	104.000	88.800	0.924
115.500	96.200	105.900	88.900	0.924
117.100	96.300	106.600	89.000	0.924
119.200	96.400	108.200	89.100	0.924
121.400	96.500	111.000	89.100	0.924
122.400	96.500	114.000	89.200	0.924
123.400	96.600	116.200	89.300	0.924
125.000	96.700	117.900	89.300	0.924
126.300	96.700	119.700	89.400	0.925
127.900	96.800	121.700	89.500	0.925
129.300	96.900	123.500	89.600	0.925
129.800	97.000	124.100	89.700	0.925
130.100	97.100	124.200	89.800	0.925
130.100	97.100	124.000	89.900	0.925
129.600	97.200	123.700	89.900	0.925
128.900	97.300	123.300	90.000	0.925
128.200	97.400	122.900	90.100	0.925
127.200	97.400	122.100	90.100	0.925
126.200	97.500	121.100	90.200	0.925
124.900	97.500	119.900	90.200	0.925
123.100	97.600	118.000	90.300	0.925
120.500	97.600	115.200	90.300	0.925
116.600	97.700	111.100	90.400	0.925
110.900	97.700	106.400	90.400	0.925
106.200	97.700	100.400	90.400	0.925
106.300	97.700	94.500	90.400	0.925
104.100	97.800	92.500	90.400	0.925
102.900	97.800	93.900	90.500	0.925
103.400	97.900	94.700	90.600	0.925
105.000	97.900	94.700	90.600	0.925
105.600	98.000	95.200	90.700	0.925
106.200	98.000	96.300	90.700	0.925
106.700	98.100	97.000	90.800	0.926
106.600	98.100	97.100	90.800	0.926
105.900	98.200	96.700	90.900	0.926
105.000	98.200	96.100	91.000	0.926
103.900	98.300	95.400	91.000	0.926
102.700	98.300	94.600	91.100	0.926
101.500	98.300	94.200	91.100	0.927
100.500	98.400	93.400	91.200	0.927
99.500	98.400	92.300	91.200	0.927
98.500	98.500	91.300	91.300	0.927
97.600	98.500	90.600	91.300	0.927
96.900	98.500	89.800	91.400	0.927
96.100	98.600	89.100	91.400	0.927
95.200	98.600	88.300	91.400	0.927
94.400	98.600	87.600	91.500	0.927
93.500	98.600	86.900	91.500	0.928
92.700	98.700	86.000	91.500	0.928
91.800	98.700	85.000	91.600	0.928
91.000	98.700	84.300	91.600	0.928
90.300	98.700	83.700	91.600	0.928
89.600	98.800	83.100	91.700	0.928
88.900	98.800	82.200	91.700	0.928
88.100	98.800	81.900	91.700	0.928
87.300	98.800	81.300	91.700	0.928
86.600	98.900	80.600	91.800	0.928
86.000	98.900	80.000	91.800	0.928
85.600	98.900	79.800	91.800	0.928
85.100	98.900	79.600	91.900	0.928
84.900	98.900	79.300	91.900	0.929
84.700	99.000	79.300	91.900	0.929
84.900	99.000	79.100	91.900	0.929
84.600	99.000	78.400	92.000	0.929
84.300	99.000	77.600	92.000	0.929
83.700	99.100	76.700	92.000	0.929
82.900	99.100	76.300	92.000	0.929
82.200	99.100	75.600	92.100	0.929
81.300	99.100	75.400	92.100	0.929
80.300	99.100	75.000	92.100	0.929
79.500	99.200	74.300	92.100	0.929
79.000	99.200	73.400	92.200	0.929
78.400	99.200	72.300	92.200	0.929
78.100	99.200	72.100	92.200	0.929
77.700	99.300	72.400	92.200	0.929
77.500	99.300	72.400	92.300	0.929
77.400	99.300	72.700	92.300	0.929
77.200	99.300	74.200	92.300	0.929
78.000	99.300	76.800	92.300	0.929
79.400	99.300	79.500	92.300	0.929
80.000	99.400	80.900	92.400	0.929
81.700	99.400	80.300	92.400	0.930
88.400	99.400	80.500	92.400	0.930
99.500	99.400	85.000	92.400	0.930
102.700	99.400	93.600	92.400	0.929
105.900	99.400	100.400	92.400	0.930
111.900	99.400	103.900	92.400	0.930
115.300	99.400	105.400	92.400	0.930
117.100	99.400	106.500	92.400	0.930
119.100	99.400	108.400	92.400	0.930
121.200	99.500	111.300	92.500	0.930
121.000	99.500	113.900	92.500	0.930
123.000	99.500	115.400	92.500	0.930
123.400	99.500	117.000	92.500	0.930
125.000	99.600	118.300	92.600	0.930
125.200	99.600	119.400	92.600	0.930
126.200	99.600	120.100	92.600	0.930
126.400	99.600	120.800	92.600	0.930
126.800	99.700	121.300	92.700	0.930
126.000	99.700	120.900	92.700	0.930
125.700	99.700	120.600	92.700	0.930
124.700	99.700	119.900	92.700	0.930
124.100	99.800	119.300	92.800	0.930
123.200	99.800	118.900	92.800	0.930
121.900	99.800	117.400	92.800	0.930
119.900	99.800	115.300	92.800	0.930
117.100	99.800	112.300	92.900	0.930
112.900	99.900	108.000	92.900	0.930
107.200	99.900	103.000	92.900	0.930
102.000	99.900	96.200	93.000	0.930
102.600	99.900	90.600	93.000	0.930
100.700	99.900	89.300	93.000	0.930
99.800	99.900	91.300	93.000	0.930
100.800	100.000	92.100	93.000	0.930
102.600	100.000	91.400	93.000	0.930
103.300	100.000	91.600	93.000	0.931
103.900	100.000	92.500	93.000	0.931
104.100	100.000	93.300	93.100	0.931
103.800	100.000	93.500	93.100	0.931
102.800	100.000	93.400	93.100	0.931
101.800	100.000	92.700	93.100	0.931
100.700	100.000	92.100	93.100	0.931
99.400	100.000	91.500	93.100	0.931
98.200	100.000	91.000	93.100	0.931
97.100	100.000	90.200	93.100	0.931
96.200	100.100	89.200	93.200	0.931
95.300	100.100	88.400	93.200	0.931
94.500	100.100	87.500	93.200	0.931
93.800	100.100	87.000	93.200	0.931
93.100	100.100	86.000	93.200	0.931
92.200	100.100	84.900	93.200	0.931
91.400	100.100	84.200	93.200	0.931
90.500	100.100	83.600	93.200	0.931
89.500	100.100	82.900	93.200	0.931
88.600	100.100	82.100	93.200	0.931
87.800	100.100	81.300	93.200	0.931
87.000	100.100	80.400	93.200	0.931
86.100	100.100	79.700	93.200	0.931
85.300	100.100	79.200	93.200	0.931
84.600	100.100	78.300	93.200	0.932
83.900	100.000	77.400	93.200	0.932
83.300	100.000	76.800	93.200	0.932
82.700	100.000	76.100	93.200	0.932
82.100	100.000	75.500	93.200	0.932
81.500	100.000	75.100	93.200	0.932
81.200	100.000	74.700	93.200	0.932
80.900	100.000	74.900	93.200	0.932
80.700	100.000	74.800	93.100	0.932
80.500	100.000	74.600	93.100	0.932
80.200	100.000	74.400	93.100	0.932
80.100	100.000	73.800	93.100	0.932
79.700	100.000	72.900	93.100	0.932
79.300	100.000	72.100	93.100	0.932
78.400	100.000	71.500	93.100	0.932
77.400	100.000	71.400	93.100	0.932
76.800	100.000	71.300	93.100	0.932
76.000	100.000	71.200	93.100	0.932
75.200	100.000	70.200	93.100	0.932
74.600	100.000	68.600	93.100	0.931
74.300	99.900	67.400	93.100	0.931
74.000	99.900	67.100	93.000	0.931
73.700	99.900	67.300	93.000	0.931
73.500	99.800	67.300	92.900	0.931
73.400	99.700	68.000	92.800	0.931
73.500	99.600	69.500	92.800	0.931
74.100	99.500	71.900	92.600	0.931
75.300	99.400	74.200	92.500	0.931
75.300	99.200	76.100	92.400	0.932
76.300	99.000	75.900	92.300	0.932
82.300	98.900	74.600	92.200	0.932
90.600	98.800	77.000	92.000	0.932
97.900	98.700	85.500	91.900	0.931
102.900	98.600	95.000	91.800	0.931
107.500	98.500	100.400	91.800	0.931
111.900	98.500	102.200	91.700	0.931
114.700	98.400	103.100	91.600	0.931
115.300	98.400	104.100	91.600	0.931
115.900	98.300	105.200	91.500	0.930
115.800	98.300	106.800	91.400	0.930
116.000	98.200	108.100	91.400	0.930
115.400	98.200	109.400	91.300	0.930
116.300	98.100	110.800	91.300	0.930
116.600	98.100	111.800	91.200	0.930
117.300	98.100	112.800	91.200	0.930
118.200	98.000	113.300	91.200	0.930
118.700	98.000	113.400	91.200	0.930
118.900	98.000	113.300	91.200	0.930
119.200	98.000	113.400	91.200	0.930
119.000	98.000	113.400	91.200	0.930
118.400	98.100	113.000	91.200	0.930
117.300	98.100	112.300	91.300	0.930
115.900	98.200	111.100	91.400	0.931
113.700	98.200	109.300	91.400	0.931
110.400	98.200	106.700	91.500	0.931
105.800	98.300	102.700	91.500	0.932
100.000	98.200	97.100	91.600	0.932
98.100	98.200	90.100	91.500	0.932
97.000	98.200	85.300	91.500	0.932
96.500	98.100	86.100	91.500	0.932
96.800	98.100	88.700	91.400	0.932
98.200	98.100	89.400	91.400	0.932
99.500	98.100	88.800	91.400	0.932
100.300	98.100	88.300	91.400	0.932
100.900	98.100	88.700	91.400	0.932
101.000	98.100	89.200	91.300	0.931
100.500	98.100	89.500	91.300	0.931
99.600	98.100	89.500	91.300	0.931
98.800	98.100	89.400	91.300	0.931
97.700	98.100	89.200	91.300	0.931
96.600	98.100	88.500	91.300	0.931
95.800	98.100	88.200	91.300	0.931
95.000	98.100	87.700	91.300	0.931
94.300	98.100	87.200	91.300	0.931
93.600	98.100	86.300	91.300	0.931
93.000	98.100	85.800	91.300	0.931
92.600	98.100	85.500	91.300	0.931
92.100	98.100	85.000	91.300	0.931
91.300	98.100	84.100	91.400	0.931
90.600	98.100	83.300	91.400	0.931
89.800	98.100	83.000	91.400	0.931
89.100	98.100	82.500	91.400	0.931
88.200	98.100	81.600	91.400	0.931
87.400	98.100	81.000	91.400	0.931
86.800	98.100	80.800	91.400	0.931
86.100	98.100	80.100	91.400	0.931
85.500	98.100	79.500	91.400	0.931
84.800	98.100	79.000	91.400	0.931
84.100	98.100	78.200	91.400	0.931
83.500	98.100	77.500	91.400	0.931
82.900	98.100	77.000	91.400	0.931
82.300	98.100	76.300	91.400	0.931
81.800	98.100	75.800	91.400	0.931
81.400	98.100	75.600	91.400	0.931
81.200	98.100	75.400	91.400	0.931
81.200	98.100	75.700	91.400	0.931
80.900	98.100	75.700	91.400	0.931
80.800	98.100	75.400	91.400	0.931
80.700	98.100	74.700	91.400	0.931
80.400	98.100	73.900	91.400	0.931
80.100	98.100	73.500	91.400	0.931
79.400	98.200	72.900	91.400	0.931
78.700	98.200	72.300	91.400	0.931
78.200	98.200	72.500	91.400	0.931
77.500	98.100	72.500	91.300	0.931
77.000	98.100	71.900	91.300	0.930
76.500	98.100	70.600	91.300	0.930
76.000	98.000	69.200	91.200	0.931
75.500	97.900	68.800	91.100	0.931
75.300	97.800	69.300	91.000	0.931
74.900	97.600	69.400	90.900	0.931
74.700	97.500	69.700	90.700	0.931
74.700	97.300	70.500	90.600	0.931
75.400	97.100	72.200	90.400	0.931
76.700	96.900	74.800	90.300	0.931
77.400	96.800	77.400	90.100	0.931
78.500	96.600	77.400	90.000	0.932
83.900	96.400	76.400	89.800	0.931
92.500	96.300	78.800	89.600	0.931
98.500	96.200	86.200	89.500	0.931
104.300	96.100	94.600	89.400	0.930
107.500	97.000	99.600	90.300	0.931
111.200	97.000	101.600	90.200	0.931
114.200	96.900	102.500	90.200	0.931
115.600	96.900	104.300	90.200	0.931
117.100	96.900	106.800	90.100	0.930
117.600	96.800	109.500	90.100	0.930
119.200	96.800	111.500	90.100	0.930
119.500	96.800	112.800	90.000	0.930
120.800	96.800	114.000	90.000	0.930
121.800	96.700	115.300	90.000	0.930
123.000	96.700	116.700	89.900	0.930
123.100	96.700	117.400	89.900	0.930
123.600	96.600	117.800	89.900	0.930
123.700	96.600	117.900	89.900	0.930
123.600	96.600	117.600	89.800	0.930
123.100	96.600	117.600	89.800	0.930
122.600	96.600	117.400	89.800	0.930
121.900	96.600	116.600	89.800	0.930
121.000	96.600	116.200	89.800	0.930
119.500	96.600	115.000	89.800	0.930
117.500	96.600	113.100	89.800	0.930
114.300	96.600	110.500	89.800	0.930
109.800	96.600	106.100	89.800	0.930
103.700	96.600	100.700	89.900	0.931
101.800	96.600	93.900	89.900	0.931
101.500	96.600	88.700	89.800	0.931
99.800	96.500	88.700	89.800	0.930
99.100	96.500	91.800	89.800	0.930
100.400	96.500	92.600	89.800	0.931
101.700	96.500	91.400	89.800	0.931
102.000	96.500	90.900	89.800	0.930
102.400	96.500	91.300	89.700	0.930
102.700	96.400	92.100	89.700	0.930
102.400	96.400	92.200	89.700	0.930
101.700	96.400	92.200	89.700	0.930
100.900	96.400	92.100	89.700	0.930
99.900	96.400	91.500	89.700	0.930
98.800	96.400	91.100	89.700	0.930
97.700	96.400	90.600	89.700	0.930
96.700	96.400	89.900	89.700	0.930
95.900	96.400	89.100	89.600	0.930
94.900	96.400	88.200	89.600	0.930
94.100	96.400	87.400	89.600	0.930
93.400	96.400	86.600	89.600	0.930
92.700	96.400	85.900	89.600	0.930
91.800	96.300	85.200	89.600	0.930
91.100	96.300	84.600	89.600	0.930
90.300	96.300	83.600	89.600	0.930
89.500	96.300	83.000	89.600	0.930
88.700	96.300	82.300	89.600	0.930
88.000	96.300	81.500	89.600	0.930
87.200	96.300	80.900	89.600	0.930
86.400	96.300	80.200	89.600	0.930
85.700	96.300	79.400	89.600	0.930
85.000	96.300	79.000	89.600	0.930
84.200	96.300	78.500	89.600	0.930
83.500	96.300	77.700	89.500	0.930
82.900	96.300	77.100	89.500	0.930
82.300	96.300	76.600	89.500	0.930
81.800	96.200	75.900	89.500	0.930
81.300	96.200	75.200	89.500	0.930
81.200	96.200	75.100	89.500	0.930
81.000	96.200	75.400	89.500	0.930
80.800	96.200	75.600	89.500	0.930
80.600	96.200	75.300	89.500	0.930
80.400	96.200	74.100	89.500	0.930
80.100	96.200	73.700	89.500	0.930
79.500	96.200	73.200	89.500	0.930
78.900	96.200	72.400	89.400	0.930
78.300	96.200	72.000	89.400	0.930
77.400	96.200	72.100	89.400	0.930
76.600	96.200	71.800	89.400	0.930
76.100	96.100	71.100	89.400	0.930
75.600	96.100	69.500	89.400	0.930
75.200	96.100	68.700	89.400	0.930
74.800	96.100	69.000	89.400	0.930
74.400	96.100	69.300	89.400	0.930
74.300	96.100	69.100	89.300	0.930
74.100	96.100	69.000	89.300	0.929
74.300	96.000	70.400	89.200	0.929
75.300	96.000	73.300	89.200	0.929
76.400	95.900	75.900	89.200	0.930
77.000	95.800	77.100	89.100	0.930
80.600	95.700	76.200	89.000	0.930
88.100	95.600	76.400	88.900	0.930
97.500	95.500	81.300	88.800	0.930
101.200	95.500	89.900	88.700	0.929
104.300	95.700	97.000	88.900	0.929
109.000	95.600	100.400	88.900	0.929
112.300	95.600	101.100	88.900	0.929
113.100	95.600	101.900	88.800	0.929
115.000	95.600	104.000	88.800	0.929
116.800	95.600	107.000	88.800	0.929
117.500	95.500	109.700	88.800	0.929
119.100	95.500	111.700	88.700	0.929
120.200	95.500	113.500	88.700	0.929
122.000	95.500	115.000	88.700	0.929
123.000	95.500	116.300	88.700	0.929
123.800	95.500	117.300	88.700	0.929
124.400	95.500	118.100	88.700	0.929
124.700	95.500	118.100	88.700	0.929
124.300	95.500	118.200	88.700	0.929
123.700	95.400	117.900	88.600	0.929
122.900	95.400	117.100	88.600	0.929
122.200	95.400	116.600	88.600	0.929
121.200	95.400	116.200	88.600	0.929
120.000	95.400	115.700	88.600	0.929
118.500	95.400	114.400	88.600	0.929
116.500	95.500	112.000	88.600	0.929
113.000	95.500	108.900	88.700	0.929
108.100	95.500	104.600	88.700	0.929
102.000	95.500	99.400	88.700	0.929
100.600	95.500	93.300	88.800	0.929
99.700	95.500	88.200	88.700	0.929
98.000	95.500	88.000	88.700	0.929
97.400	95.500	90.600	88.700	0.929
99.200	95.500	91.300	88.700	0.929
100.300	95.400	90.500	88.700	0.930
100.800	95.400	90.200	88.700	0.930
101.400	95.400	91.000	88.700	0.929
101.700	95.400	91.900	88.700	0.929
101.100	95.400	91.900	88.700	0.929
100.200	95.400	91.400	88.700	0.929
99.200	95.400	91.000	88.700	0.929
98.000	95.400	90.300	88.700	0.929
96.700	95.400	89.300	88.700	0.929
95.500	95.400	88.500	88.700	0.929
