sep=\t				
Sampling Freq: 100Hz, 0.01 seconds between each sample				
AO	Average AO	PW	Average PW	Pd/Pa
119.000	98.700	124.900	98.300	0.996
118.100	98.700	120.600	98.400	0.997
117.100	98.700	116.000	98.400	0.997
116.800	98.700	112.600	98.400	0.996
116.400	98.700	114.900	98.400	0.996
116.100	98.700	116.900	98.400	0.996
115.500	98.700	116.100	98.400	0.996
114.900	98.800	115.800	98.400	0.996
114.000	98.800	114.800	98.400	0.996
113.200	98.800	113.400	98.400	0.997
112.300	98.800	111.800	98.400	0.997
111.300	98.800	110.400	98.500	0.997
110.200	98.800	109.700	98.500	0.997
109.000	98.800	108.700	98.500	0.997
107.800	98.800	107.900	98.500	0.997
106.600	98.800	107.000	98.500	0.997
105.400	98.800	105.800	98.500	0.997
104.300	98.900	104.600	98.500	0.997
103.100	98.900	103.300	98.600	0.997
102.000	98.900	102.100	98.600	0.997
100.900	98.900	101.100	98.600	0.997
99.900	98.900	100.100	98.600	0.997
98.800	98.900	99.200	98.600	0.997
97.900	98.900	98.200	98.600	0.997
96.900	98.900	97.200	98.600	0.997
96.100	98.900	96.400	98.600	0.997
95.200	98.900	95.700	98.600	0.997
94.500	98.900	94.900	98.600	0.997
93.800	98.900	94.000	98.700	0.997
93.100	98.900	93.400	98.700	0.997
92.500	99.000	92.800	98.700	0.997
91.900	99.000	92.000	98.700	0.997
91.500	99.000	91.400	98.700	0.997
90.900	99.000	90.800	98.700	0.997
90.400	99.000	90.200	98.700	0.997
89.800	99.000	89.800	98.700	0.997
89.300	99.000	89.200	98.700	0.997
88.800	99.000	88.800	98.700	0.997
88.300	99.000	88.100	98.700	0.997
87.900	99.000	87.600	98.700	0.997
87.400	99.000	87.400	98.700	0.997
87.100	99.000	87.200	98.700	0.997
86.600	99.000	86.700	98.700	0.997
86.200	99.000	86.300	98.800	0.997
85.800	99.000	86.000	98.800	0.997
85.400	99.000	85.800	98.800	0.997
85.100	99.000	85.500	98.800	0.997
84.800	99.000	85.200	98.800	0.997
84.500	99.000	84.900	98.800	0.997
84.300	99.100	84.500	98.800	0.997
84.100	99.100	84.200	98.800	0.997
84.100	99.100	84.500	98.800	0.997
83.900	99.100	85.100	98.800	0.997
83.600	99.100	85.400	98.800	0.997
83.000	99.100	85.000	98.800	0.997
82.600	99.100	84.200	98.800	0.997
82.200	99.100	83.400	98.800	0.997
81.800	99.100	82.900	98.900	0.997
81.400	99.100	81.900	98.900	0.998
81.000	99.100	81.200	98.900	0.998
80.500	99.100	81.200	98.900	0.998
80.200	99.100	81.200	98.900	0.998
79.800	99.100	81.400	98.900	0.998
79.500	99.100	81.000	98.900	0.998
79.200	99.200	80.400	98.900	0.998
78.700	99.200	79.800	98.900	0.998
78.400	99.200	79.100	98.900	0.998
78.500	99.200	78.800	98.900	0.998
78.900	99.200	79.200	98.900	0.998
78.800	99.200	80.500	99.000	0.998
79.000	99.200	81.000	99.000	0.998
80.900	99.200	81.000	99.000	0.998
85.500	99.200	81.600	99.000	0.998
90.800	99.200	81.700	99.000	0.998
95.200	99.200	82.300	99.000	0.998
98.200	99.200	87.800	99.000	0.998
101.800	99.200	97.000	98.900	0.997
106.200	99.200	104.600	98.900	0.997
110.800	99.200	107.700	98.900	0.997
113.900	99.200	110.200	98.900	0.997
116.800	99.200	114.400	98.900	0.997
119.400	99.200	118.000	98.900	0.997
121.900	99.200	120.300	98.900	0.997
123.900	99.200	121.600	98.900	0.997
125.300	99.200	123.400	99.000	0.997
126.900	99.200	125.400	99.000	0.997
128.000	99.200	127.200	99.000	0.997
129.000	99.300	128.700	99.000	0.997
130.000	99.300	129.900	99.000	0.997
131.000	99.300	131.000	99.000	0.997
131.900	99.300	132.100	99.000	0.997
132.600	99.300	132.700	99.000	0.997
133.300	99.300	133.700	99.000	0.997
133.700	99.300	134.300	99.000	0.997
133.800	99.300	135.000	99.000	0.997
133.500	99.300	135.500	99.000	0.997
132.600	99.300	135.700	99.100	0.997
131.000	99.400	135.500	99.100	0.997
128.200	99.400	134.700	99.100	0.997
124.600	99.400	133.300	99.100	0.997
122.000	99.400	130.900	99.100	0.997
121.600	99.400	127.400	99.100	0.997
120.500	99.400	122.400	99.200	0.997
119.700	99.400	116.900	99.200	0.997
119.200	99.400	115.700	99.200	0.997
119.100	99.500	119.300	99.200	0.997
118.600	99.500	120.100	99.200	0.997
118.000	99.500	119.500	99.200	0.997
117.200	99.500	119.000	99.200	0.997
116.300	99.500	117.500	99.300	0.997
115.400	99.500	115.700	99.300	0.998
114.400	99.500	114.100	99.300	0.998
113.100	99.500	113.100	99.300	0.998
112.000	99.600	112.300	99.300	0.998
110.800	99.600	111.400	99.300	0.998
109.500	99.600	110.500	99.400	0.998
108.300	99.600	109.000	99.400	0.998
107.100	99.600	107.400	99.400	0.998
105.800	99.600	106.300	99.400	0.998
104.600	99.600	105.200	99.400	0.998
103.500	99.700	104.300	99.500	0.998
102.500	99.700	103.300	99.500	0.998
101.400	99.700	102.100	99.500	0.998
100.400	99.700	101.200	99.500	0.998
99.500	99.700	100.200	99.500	0.998
98.600	99.700	99.300	99.600	0.998
97.700	99.700	98.500	99.600	0.998
97.000	99.800	97.700	99.600	0.998
96.100	99.800	96.900	99.600	0.998
95.600	99.800	96.200	99.600	0.998
94.800	99.800	95.500	99.600	0.998
94.100	99.800	94.600	99.700	0.999
93.500	99.800	93.900	99.700	0.999
93.000	99.800	93.300	99.700	0.999
92.400	99.800	92.700	99.700	0.999
91.800	99.900	92.200	99.700	0.999
91.300	99.900	91.600	99.700	0.999
90.900	99.900	91.400	99.800	0.999
90.400	99.900	91.000	99.800	0.999
89.900	99.900	90.300	99.800	0.999
89.400	99.900	89.800	99.800	0.999
89.100	99.900	89.400	99.800	0.999
88.600	100.000	89.000	99.900	0.999
88.100	100.000	88.500	99.900	0.999
87.600	100.000	88.100	99.900	0.999
87.300	100.000	87.800	99.900	0.999
86.900	100.000	87.400	99.900	0.999
86.500	100.000	87.100	99.900	0.999
86.100	100.000	86.800	99.900	0.999
85.900	100.000	86.400	100.000	0.999
85.600	100.100	86.000	100.000	0.999
85.500	100.100	86.000	100.000	0.999
85.300	100.100	86.000	100.000	0.999
85.100	100.100	86.400	100.000	0.999
84.600	100.100	86.700	100.000	0.999
84.200	100.100	86.200	100.000	0.999
83.500	100.100	85.400	100.100	0.999
83.000	100.100	84.400	100.100	0.999
82.600	100.100	83.500	100.100	0.999
82.100	100.200	82.700	100.100	0.999
81.700	100.200	81.900	100.100	0.999
81.200	100.200	81.700	100.100	0.999
80.800	100.200	81.800	100.100	0.999
80.300	100.200	81.600	100.200	1.000
79.800	100.200	81.400	100.200	1.000
79.400	100.200	81.100	100.200	1.000
78.900	100.200	80.300	100.200	1.000
78.700	100.200	79.600	100.200	1.000
78.700	100.300	79.400	100.200	1.000
79.000	100.300	79.600	100.200	1.000
79.000	100.300	80.600	100.200	1.000
78.900	100.300	81.000	100.200	1.000
80.600	100.300	80.900	100.200	1.000
85.100	100.200	81.800	100.300	1.000
90.500	100.200	82.100	100.300	1.000
95.200	100.200	82.400	100.200	1.000
98.600	100.200	86.900	100.200	1.000
102.300	100.200	95.700	100.200	1.000
106.500	100.200	103.700	100.100	1.000
111.200	100.200	107.700	100.100	1.000
114.100	100.200	110.400	100.100	0.999
116.300	100.200	114.300	100.100	0.999
118.700	100.200	118.000	100.100	0.999
121.200	100.200	119.900	100.100	0.999
122.800	100.200	120.800	100.100	0.999
124.400	100.200	122.400	100.100	0.999
125.500	100.200	124.200	100.200	0.999
126.600	100.200	125.700	100.200	0.999
127.400	100.300	127.300	100.200	0.999
128.500	100.300	128.500	100.200	0.999
129.200	100.300	129.300	100.200	0.999
130.100	100.300	130.000	100.200	0.999
131.000	100.300	131.000	100.200	0.999
131.400	100.400	132.100	100.300	0.999
132.000	100.400	132.700	100.300	0.999
132.100	100.400	133.300	100.300	0.999
131.700	100.400	134.000	100.300	0.999
130.600	100.500	134.000	100.400	0.999
128.700	100.500	133.700	100.400	0.999
125.600	100.600	133.100	100.400	0.999
121.900	100.600	131.600	100.500	0.999
120.300	100.600	128.900	100.500	0.999
119.600	100.600	124.600	100.600	1.000
118.500	100.600	119.300	100.600	1.000
117.900	100.700	114.100	100.600	1.000
117.500	100.700	114.100	100.600	0.999
117.100	100.700	117.700	100.700	0.999
116.800	100.700	117.600	100.700	0.999
116.000	100.800	117.100	100.700	1.000
115.400	100.800	116.800	100.700	1.000
114.500	100.800	115.500	100.800	1.000
113.600	100.800	113.900	100.800	1.000
112.500	100.800	112.600	100.800	1.000
111.400	100.900	111.400	100.800	1.000
110.100	100.900	110.400	100.900	1.000
108.800	100.900	109.500	100.900	1.000
107.500	100.900	108.300	100.900	1.000
106.200	100.900	106.900	100.900	1.000
105.000	101.000	105.500	100.900	1.000
103.700	101.000	104.200	101.000	1.000
102.500	101.000	103.100	101.000	1.000
101.400	101.000	101.900	101.000	1.000
100.300	101.000	101.000	101.000	1.000
99.200	101.000	100.000	101.000	1.000
98.300	101.100	99.000	101.100	1.000
97.400	101.100	97.900	101.100	1.000
96.500	101.100	97.000	101.100	1.000
95.700	101.100	96.100	101.100	1.000
94.900	101.100	95.300	101.100	1.000
94.100	101.100	94.500	101.200	1.000
93.400	101.100	93.700	101.200	1.000
92.700	101.200	93.000	101.200	1.000
92.100	101.200	92.400	101.200	1.000
91.600	101.200	91.600	101.200	1.000
90.900	101.200	91.100	101.200	1.000
90.400	101.200	90.500	101.200	1.000
89.800	101.200	90.000	101.300	1.000
89.300	101.200	89.500	101.300	1.000
88.800	101.200	88.900	101.300	1.000
88.400	101.200	88.200	101.300	1.000
88.000	101.300	88.000	101.300	1.000
87.500	101.300	87.600	101.300	1.000
87.100	101.300	87.100	101.300	1.000
86.700	101.300	87.000	101.300	1.000
86.300	101.300	86.400	101.300	1.000
85.900	101.300	86.200	101.300	1.000
85.500	101.300	85.900	101.400	1.000
85.200	101.300	85.500	101.400	1.000
84.900	101.300	85.200	101.400	1.001
84.600	101.300	84.900	101.400	1.001
84.600	101.300	84.600	101.400	1.001
84.500	101.300	84.600	101.400	1.001
84.400	101.400	84.900	101.400	1.000
84.100	101.400	85.500	101.400	1.000
83.700	101.400	85.500	101.400	1.000
83.200	101.400	85.000	101.400	1.001
82.900	101.400	84.200	101.400	1.001
82.600	101.400	83.500	101.400	1.001
82.100	101.400	82.800	101.500	1.001
81.700	101.400	81.700	101.500	1.001
81.200	101.400	81.100	101.500	1.001
80.800	101.400	81.500	101.500	1.001
80.300	101.400	81.800	101.500	1.001
79.800	101.400	81.200	101.500	1.001
79.300	101.400	80.600	101.500	1.001
78.800	101.400	80.000	101.500	1.001
78.300	101.400	79.200	101.500	1.001
78.000	101.400	78.400	101.500	1.001
78.300	101.400	78.200	101.500	1.001
78.700	101.400	78.600	101.500	1.001
78.300	101.400	79.400	101.500	1.000
78.100	101.400	80.200	101.500	1.001
80.000	101.400	81.400	101.500	1.001
84.400	101.400	82.100	101.500	1.001
89.700	101.400	81.600	101.500	1.001
94.500	101.400	81.800	101.500	1.001
97.900	101.300	85.500	101.400	1.001
101.600	101.300	93.300	101.400	1.001
105.000	101.300	101.400	101.400	1.001
109.000	101.300	106.300	101.300	1.001
112.800	101.300	109.300	101.300	1.000
115.200	101.300	112.200	101.300	1.000
117.000	101.200	115.500	101.300	1.000
118.700	101.200	118.400	101.300	1.000
120.600	101.200	119.800	101.300	1.000
121.900	101.200	120.400	101.300	1.000
122.800	101.200	121.400	101.200	1.000
123.800	101.200	123.000	101.200	1.000
124.500	101.200	124.500	101.200	1.000
125.200	101.200	125.700	101.200	1.000
126.000	101.200	126.500	101.200	1.000
126.700	101.100	127.100	101.200	1.000
127.300	101.100	127.800	101.200	1.000
127.800	101.100	128.600	101.200	1.000
128.000	101.100	129.300	101.200	1.000
127.700	101.100	129.900	101.200	1.000
126.900	101.100	130.000	101.100	1.000
125.400	101.100	129.800	101.100	1.000
122.900	101.100	129.300	101.100	1.000
119.300	101.100	128.000	101.100	1.000
116.900	101.100	126.200	101.100	1.000
116.800	101.100	122.800	101.100	1.001
115.900	101.100	118.000	101.200	1.001
115.500	101.100	112.500	101.200	1.001
115.400	101.100	110.000	101.100	1.001
115.500	101.100	113.700	101.100	1.000
115.300	101.100	115.400	101.100	1.000
114.700	101.100	115.200	101.100	1.000
114.300	101.100	115.200	101.100	1.000
113.600	101.100	114.600	101.100	1.000
112.800	101.100	113.400	101.100	1.001
111.900	101.100	112.300	101.100	1.001
111.000	101.100	111.100	101.100	1.001
109.900	101.100	110.100	101.200	1.001
108.700	101.100	109.100	101.200	1.001
107.600	101.100	108.300	101.200	1.001
106.400	101.100	107.200	101.200	1.001
105.200	101.100	105.900	101.200	1.001
104.000	101.100	104.900	101.200	1.001
102.900	101.100	103.800	101.200	1.001
101.700	101.100	102.700	101.200	1.001
100.900	101.100	101.500	101.200	1.001
99.800	101.100	100.500	101.200	1.001
98.800	101.100	99.800	101.200	1.001
97.900	101.100	98.700	101.200	1.001
97.100	101.100	97.700	101.200	1.001
96.300	101.100	97.000	101.200	1.001
95.500	101.100	96.400	101.200	1.001
94.900	101.100	95.700	101.200	1.001
94.300	101.100	94.800	101.200	1.001
93.700	101.100	94.100	101.200	1.001
92.900	101.200	93.500	101.200	1.001
92.400	101.200	93.000	101.200	1.001
92.000	101.200	92.200	101.200	1.001
91.400	101.200	91.500	101.300	1.001
91.000	101.200	91.100	101.300	1.001
90.500	101.200	90.800	101.300	1.001
90.100	101.200	90.400	101.300	1.001
89.700	101.200	90.100	101.300	1.001
89.300	101.200	89.700	101.300	1.001
88.800	101.200	89.200	101.300	1.001
88.500	101.200	88.900	101.300	1.001
88.100	101.200	88.600	101.300	1.001
87.800	101.200	88.200	101.300	1.001
87.400	101.200	87.900	101.300	1.001
87.000	101.200	87.500	101.300	1.001
86.700	101.200	87.100	101.300	1.001
86.500	101.200	86.900	101.300	1.001
86.200	101.200	86.700	101.300	1.001
86.000	101.200	86.200	101.300	1.001
85.900	101.200	86.100	101.300	1.001
85.900	101.200	86.200	101.400	1.001
85.800	101.300	86.600	101.400	1.001
85.500	101.300	87.300	101.400	1.001
85.100	101.300	87.500	101.400	1.001
84.700	101.300	87.100	101.400	1.001
84.300	101.300	86.200	101.400	1.001
84.000	101.300	85.500	101.400	1.001
83.700	101.300	84.900	101.400	1.001
83.200	101.300	83.900	101.400	1.001
82.900	101.300	83.000	101.400	1.001
82.400	101.300	83.300	101.400	1.001
82.200	101.300	83.700	101.400	1.001
81.800	101.300	83.500	101.400	1.001
81.400	101.300	82.900	101.500	1.001
81.000	101.300	82.500	101.500	1.001
80.600	101.400	82.000	101.500	1.001
80.400	101.400	81.300	101.500	1.001
80.800	101.400	81.100	101.500	1.001
80.900	101.400	81.600	101.500	1.001
80.900	101.400	82.400	101.500	1.001
81.200	101.400	82.900	101.500	1.001
84.100	101.400	83.600	101.500	1.001
89.300	101.400	83.900	101.500	1.001
94.900	101.400	83.600	101.500	1.001
98.700	101.400	85.000	101.500	1.001
101.800	101.400	90.900	101.500	1.001
106.000	101.400	99.800	101.500	1.001
110.500	101.400	106.900	101.500	1.001
114.900	101.400	110.200	101.500	1.001
118.100	101.400	113.000	101.500	1.001
120.800	101.400	117.300	101.500	1.001
123.000	101.400	121.700	101.500	1.001
125.400	101.400	123.600	101.500	1.001
127.600	101.400	124.400	101.500	1.001
129.300	101.400	126.100	101.500	1.001
130.600	101.400	128.600	101.500	1.001
131.900	101.400	130.400	101.500	1.001
133.200	101.400	132.300	101.500	1.001
134.200	101.400	133.800	101.500	1.001
135.100	101.500	135.000	101.500	1.001
136.400	101.500	136.100	101.500	1.001
137.200	101.500	136.900	101.500	1.001
138.000	101.500	137.800	101.600	1.001
138.400	101.500	138.700	101.600	1.000
138.600	101.500	139.500	101.600	1.000
138.200	101.600	140.300	101.600	1.000
137.200	101.600	140.800	101.600	1.000
135.300	101.600	140.500	101.600	1.000
132.200	101.600	139.600	101.700	1.000
128.600	101.600	138.400	101.700	1.000
126.700	101.700	136.200	101.700	1.000
125.900	101.700	132.400	101.700	1.001
124.900	101.700	127.300	101.800	1.001
124.400	101.700	121.500	101.800	1.001
124.000	101.700	119.800	101.800	1.001
123.700	101.700	123.600	101.800	1.001
123.000	101.800	124.300	101.800	1.001
122.400	101.800	123.900	101.800	1.001
121.500	101.800	123.700	101.900	1.001
120.400	101.800	122.300	101.900	1.001
119.300	101.800	120.300	101.900	1.001
118.200	101.800	118.800	101.900	1.001
117.100	101.900	117.700	101.900	1.001
115.700	101.900	116.700	102.000	1.001
114.400	101.900	115.800	102.000	1.001
112.800	101.900	114.600	102.000	1.001
111.500	101.900	113.100	102.000	1.001
110.400	101.900	111.600	102.000	1.001
109.200	102.000	110.400	102.000	1.001
107.900	102.000	109.200	102.100	1.001
106.700	102.000	108.200	102.100	1.001
105.500	102.000	107.000	102.100	1.001
104.500	102.000	105.900	102.100	1.001
103.500	102.000	104.900	102.100	1.001
102.500	102.000	103.800	102.100	1.001
101.600	102.100	102.700	102.200	1.001
100.800	102.100	101.900	102.200	1.001
100.000	102.100	101.100	102.200	1.001
99.300	102.100	100.400	102.200	1.001
98.500	102.100	99.500	102.200	1.001
97.800	102.100	98.900	102.200	1.001
97.200	102.100	98.300	102.200	1.001
96.600	102.100	97.600	102.300	1.001
96.000	102.200	97.200	102.300	1.001
95.400	102.200	96.400	102.300	1.001
94.900	102.200	95.800	102.300	1.001
94.300	102.200	95.000	102.300	1.001
93.800	102.200	94.400	102.300	1.001
93.500	102.200	94.200	102.300	1.001
92.900	102.200	93.700	102.300	1.001
92.400	102.200	93.300	102.400	1.001
92.000	102.200	92.600	102.400	1.001
91.400	102.300	92.100	102.400	1.001
91.100	102.300	91.900	102.400	1.001
90.600	102.300	91.400	102.400	1.001
90.200	102.300	90.900	102.400	1.001
89.800	102.300	90.600	102.400	1.001
89.300	102.300	90.300	102.400	1.001
89.000	102.300	89.900	102.500	1.001
88.600	102.300	89.700	102.500	1.001
88.400	102.300	89.100	102.500	1.001
88.100	102.400	88.800	102.500	1.001
88.000	102.400	88.700	102.500	1.001
87.800	102.400	88.900	102.500	1.001
87.300	102.400	89.300	102.500	1.001
86.700	102.400	89.300	102.500	1.001
86.200	102.400	88.800	102.500	1.001
85.700	102.400	87.800	102.600	1.001
85.300	102.400	87.000	102.600	1.001
85.100	102.400	86.300	102.600	1.001
84.500	102.400	85.200	102.600	1.001
83.900	102.500	84.700	102.600	1.001
83.500	102.500	84.800	102.600	1.001
83.100	102.500	84.900	102.600	1.001
82.700	102.500	84.700	102.600	1.001
82.200	102.500	84.600	102.700	1.002
81.800	102.500	83.700	102.700	1.002
81.300	102.500	82.800	102.700	1.002
81.200	102.500	82.300	102.700	1.002
81.500	102.500	82.000	102.700	1.002
81.500	102.500	82.400	102.700	1.002
81.300	102.500	83.200	102.700	1.002
81.800	102.500	83.900	102.700	1.002
85.000	102.500	84.100	102.700	1.002
90.100	102.500	84.200	102.700	1.002
95.700	102.500	84.000	102.700	1.002
99.800	102.500	85.300	102.700	1.002
103.300	102.500	91.500	102.600	1.002
107.800	102.500	100.500	102.600	1.002
112.900	102.500	108.000	102.600	1.002
116.600	102.500	111.900	102.600	1.001
119.300	102.500	114.900	102.600	1.001
122.400	102.500	119.100	102.600	1.001
124.800	102.500	123.000	102.600	1.001
127.100	102.500	125.000	102.600	1.001
129.100	102.500	125.900	102.600	1.001
130.700	102.500	127.600	102.600	1.001
130.700	102.500	129.900	102.600	1.001
132.000	102.500	132.000	102.600	1.001
133.300	102.500	133.700	102.700	1.001
134.600	102.600	134.900	102.700	1.001
135.900	102.600	136.200	102.700	1.001
137.100	102.600	137.200	102.700	1.001
138.600	102.600	138.300	102.700	1.001
139.600	102.600	139.700	102.700	1.001
140.600	102.700	141.100	102.800	1.001
141.400	102.700	142.100	102.800	1.001
141.500	102.700	143.100	102.800	1.001
141.200	102.800	143.600	102.900	1.001
140.300	102.900	143.600	102.900	1.000
138.500	102.900	143.100	102.900	1.000
135.500	103.000	141.900	103.000	1.000
131.400	103.000	139.700	103.100	1.001
128.500	103.100	136.000	103.100	1.001
127.700	103.100	130.900	103.200	1.001
126.500	103.100	124.700	103.200	1.001
125.800	103.100	120.700	103.200	1.001
125.400	103.200	123.700	103.300	1.001
124.900	103.200	125.700	103.300	1.001
124.400	103.200	125.300	103.300	1.001
123.700	103.300	125.000	103.400	1.001
122.700	103.300	124.000	103.400	1.001
121.700	103.300	122.400	103.400	1.001
120.400	103.400	120.400	103.500	1.001
119.100	103.400	118.800	103.500	1.001
117.700	103.400	117.600	103.500	1.001
116.300	103.500	116.700	103.600	1.001
114.900	103.500	115.200	103.600	1.001
113.400	103.500	113.800	103.600	1.001
111.900	103.600	112.300	103.700	1.001
110.500	103.600	110.700	103.700	1.001
109.100	103.600	109.200	103.700	1.001
107.900	103.700	107.900	103.700	1.001
106.600	103.700	106.900	103.800	1.001
105.500	103.700	105.700	103.800	1.001
104.400	103.700	104.500	103.800	1.001
103.300	103.800	103.500	103.800	1.001
102.300	103.800	102.500	103.900	1.001
101.400	103.800	101.600	103.900	1.001
100.500	103.800	100.700	103.900	1.001
99.700	103.900	100.000	103.900	1.001
98.900	103.900	99.100	104.000	1.001
98.200	103.900	98.400	104.000	1.001
97.500	103.900	97.800	104.000	1.001
96.800	104.000	97.100	104.000	1.001
96.100	104.000	96.400	104.000	1.001
95.500	104.000	95.500	104.100	1.001
94.800	104.000	94.800	104.100	1.001
94.200	104.000	94.300	104.100	1.001
93.800	104.100	93.700	104.100	1.001
93.200	104.100	93.300	104.100	1.001
92.800	104.100	92.900	104.200	1.001
92.200	104.100	92.200	104.200	1.001
91.800	104.100	91.700	104.200	1.001
91.400	104.100	91.300	104.200	1.001
91.000	104.200	91.000	104.200	1.001
90.400	104.200	90.600	104.200	1.001
89.900	104.200	90.000	104.300	1.001
89.600	104.200	89.500	104.300	1.001
89.200	104.200	89.100	104.300	1.001
88.900	104.200	88.800	104.300	1.001
88.500	104.300	88.500	104.300	1.001
88.400	104.300	88.600	104.300	1.001
88.300	104.300	89.000	104.300	1.000
88.000	104.300	89.300	104.400	1.000
87.700	104.300	89.300	104.400	1.000
87.100	104.300	88.700	104.400	1.000
86.700	104.400	87.900	104.400	1.001
86.400	104.400	87.300	104.400	1.001
86.000	104.400	86.500	104.400	1.001
85.600	104.400	85.600	104.500	1.001
85.100	104.400	85.200	104.500	1.000
84.600	104.400	85.300	104.500	1.000
84.100	104.400	85.200	104.500	1.000
83.600	104.500	84.800	104.500	1.000
83.100	104.500	84.300	104.500	1.000
82.400	104.500	83.400	104.500	1.000
81.900	104.500	82.800	104.600	1.001
81.400	104.500	82.000	104.600	1.001
81.400	104.500	81.400	104.600	1.001
81.900	104.500	81.400	104.600	1.000
81.800	104.500	82.500	104.600	1.000
81.300	104.500	83.900	104.600	1.001
81.400	104.500	85.200	104.600	1.001
83.600	104.500	85.200	104.600	1.001
88.300	104.400	84.300	104.600	1.002
93.700	104.400	84.900	104.600	1.002
98.400	104.400	88.200	104.500	1.001
102.300	104.400	94.900	104.500	1.001
105.600	104.300	103.300	104.500	1.001
110.100	104.400	109.700	104.500	1.001
114.300	104.400	113.400	104.500	1.001
117.600	104.400	116.700	104.600	1.001
120.200	104.500	119.900	104.600	1.001
122.500	104.500	122.900	104.600	1.001
124.800	104.500	124.200	104.600	1.001
126.400	104.500	125.200	104.700	1.001
127.900	104.500	127.200	104.700	1.001
129.200	104.600	129.000	104.700	1.001
130.500	104.600	130.500	104.700	1.001
131.600	104.600	131.500	104.800	1.001
132.800	104.600	132.800	104.800	1.001
134.000	104.700	134.000	104.800	1.001
134.900	104.700	135.100	104.800	1.001
135.900	104.700	136.100	104.900	1.001
136.600	104.700	137.000	104.900	1.001
137.200	104.800	138.000	104.900	1.001
137.400	104.800	138.800	104.900	1.001
136.900	104.800	139.300	105.000	1.001
135.800	104.900	139.400	105.000	1.001
133.500	104.900	138.900	105.000	1.001
130.400	104.900	137.300	105.100	1.001
126.300	105.000	134.900	105.100	1.001
125.500	105.000	131.200	105.100	1.001
124.600	105.000	125.700	105.100	1.001
123.800	105.100	119.600	105.200	1.001
123.500	105.100	117.800	105.200	1.001
123.400	105.100	122.100	105.200	1.001
123.000	105.100	123.400	105.200	1.001
122.600	105.200	123.500	105.300	1.001
122.000	105.200	123.000	105.300	1.001
121.100	105.200	121.900	105.300	1.001
120.100	105.200	120.600	105.400	1.001
119.100	105.300	118.800	105.400	1.001
117.800	105.300	117.200	105.400	1.001
116.500	105.300	116.200	105.400	1.001
115.200	105.300	115.100	105.400	1.001
113.600	105.300	113.900	105.500	1.001
112.200	105.400	112.600	105.500	1.001
110.800	105.400	111.000	105.500	1.001
109.600	105.400	109.700	105.500	1.001
108.200	105.400	108.400	105.500	1.001
107.100	105.400	107.100	105.500	1.001
105.800	105.400	106.000	105.500	1.001
104.700	105.500	105.000	105.600	1.001
103.700	105.500	104.100	105.600	1.001
102.700	105.500	103.000	105.600	1.001
101.800	105.500	102.000	105.600	1.001
100.900	105.500	101.000	105.600	1.001
100.100	105.500	100.300	105.600	1.001
99.400	105.600	99.500	105.600	1.001
98.600	105.600	98.800	105.700	1.001
97.800	105.600	98.100	105.700	1.001
97.200	105.600	97.400	105.700	1.001
96.500	105.600	96.700	105.700	1.001
95.900	105.600	96.100	105.700	1.001
95.500	105.600	95.300	105.700	1.001
94.900	105.700	94.800	105.700	1.001
94.400	105.700	94.400	105.700	1.001
93.900	105.700	93.700	105.800	1.001
93.400	105.700	93.300	105.800	1.001
93.000	105.700	92.900	105.800	1.001
92.600	105.700	92.500	105.800	1.001
92.200	105.700	92.200	105.800	1.001
91.800	105.700	91.800	105.800	1.001
91.300	105.800	91.600	105.800	1.001
90.900	105.800	91.400	105.800	1.001
90.400	105.800	90.900	105.800	1.001
90.000	105.800	90.500	105.900	1.001
89.700	105.800	90.100	105.900	1.001
89.500	105.800	89.800	105.900	1.001
89.300	105.800	89.500	105.900	1.001
89.100	105.800	89.600	105.900	1.001
89.000	105.800	89.900	105.900	1.001
88.700	105.800	90.300	105.900	1.001
88.400	105.900	90.300	105.900	1.001
88.000	105.900	89.600	105.900	1.001
87.600	105.900	88.800	105.900	1.001
87.200	105.900	88.000	105.900	1.001
86.900	105.900	87.300	106.000	1.001
86.500	105.900	86.600	106.000	1.001
86.100	105.900	86.400	106.000	1.000
85.700	105.900	86.500	106.000	1.001
85.200	105.900	86.700	106.000	1.001
84.800	105.900	86.300	106.000	1.001
84.300	106.000	85.500	106.000	1.001
83.900	106.000	84.900	106.000	1.001
83.400	106.000	84.200	106.000	1.000
83.000	106.000	83.400	106.000	1.000
82.900	106.000	83.000	106.000	1.000
83.300	106.000	83.400	106.000	1.000
83.300	106.000	84.700	106.000	1.000
83.100	106.000	85.900	106.100	1.000
83.700	106.000	86.300	106.100	1.001
87.200	106.000	86.000	106.100	1.000
92.600	106.000	85.700	106.100	1.000
98.200	106.000	87.300	106.100	1.000
102.100	106.100	92.400	106.100	1.001
105.600	106.100	100.600	106.200	1.001
109.800	106.100	108.600	106.200	1.001
114.700	106.000	113.000	106.100	1.001
118.900	106.000	116.100	106.100	1.001
122.400	106.000	119.700	106.100	1.001
124.900	105.900	124.200	106.100	1.001
127.300	105.900	127.400	106.100	1.002
129.900	105.900	128.500	106.100	1.002
132.100	105.900	129.400	106.100	1.002
133.800	105.900	131.600	106.100	1.001
135.400	105.900	134.000	106.100	1.001
136.700	105.900	136.000	106.100	1.001
138.200	106.000	137.500	106.100	1.001
139.600	106.000	138.900	106.100	1.001
140.900	106.000	140.300	106.100	1.001
142.200	106.000	141.700	106.100	1.001
143.400	106.000	143.100	106.100	1.001
144.400	106.000	144.400	106.200	1.001
144.900	106.000	145.400	106.200	1.001
145.300	106.100	146.400	106.200	1.001
144.900	106.100	146.800	106.200	1.001
143.800	106.200	146.900	106.200	1.001
141.900	106.200	146.400	106.300	1.000
138.700	106.300	145.300	106.300	1.000
134.500	106.300	143.600	106.400	1.001
131.900	106.300	140.200	106.400	1.001
131.300	106.300	135.000	106.500	1.001
130.300	106.400	128.500	106.500	1.001
129.800	106.400	123.800	106.500	1.001
129.300	106.400	126.700	106.500	1.001
128.900	106.400	129.600	106.500	1.001
128.300	106.500	129.100	106.600	1.001
127.300	106.500	129.000	106.600	1.001
126.200	106.500	127.900	106.600	1.001
125.100	106.500	125.900	106.600	1.001
124.000	106.600	124.000	106.700	1.001
122.700	106.600	122.800	106.700	1.001
121.100	106.600	121.400	106.700	1.001
119.800	106.700	120.200	106.700	1.001
118.300	106.700	119.000	106.800	1.001
116.800	106.700	117.500	106.800	1.001
115.400	106.700	116.100	106.800	1.001
114.000	106.800	114.600	106.800	1.001
112.600	106.800	113.100	106.800	1.001
111.100	106.800	112.000	106.900	1.001
110.000	106.800	110.800	106.900	1.001
108.900	106.800	109.600	106.900	1.001
107.700	106.900	108.500	106.900	1.001
106.700	106.900	107.400	106.900	1.001
105.700	106.900	106.200	107.000	1.000
104.900	106.900	105.400	107.000	1.000
104.000	106.900	104.700	107.000	1.000
103.300	107.000	103.800	107.000	1.000
102.400	107.000	103.100	107.000	1.000
101.700	107.000	102.400	107.000	1.000
101.000	107.000	101.600	107.100	1.000
100.200	107.000	100.900	107.100	1.000
99.700	107.000	100.300	107.100	1.000
99.100	107.100	99.500	107.100	1.000
98.500	107.100	98.900	107.100	1.000
98.000	107.100	98.400	107.100	1.000
97.500	107.100	97.900	107.100	1.000
96.900	107.100	97.200	107.200	1.000
96.400	107.100	96.700	107.200	1.000
95.900	107.200	96.300	107.200	1.000
95.500	107.200	95.800	107.200	1.000
95.000	107.200	95.500	107.200	1.000
94.600	107.200	95.200	107.200	1.000
94.000	107.200	94.700	107.200	1.000
93.500	107.200	94.400	107.300	1.000
93.200	107.200	94.000	107.300	1.000
92.700	107.300	93.400	107.300	1.000
92.400	107.300	92.900	107.300	1.000
92.000	107.300	92.700	107.300	1.000
91.700	107.300	92.500	107.300	1.000
91.500	107.300	92.400	107.300	1.000
91.300	107.300	92.600	107.300	1.000
90.900	107.300	92.800	107.400	1.000
90.400	107.300	92.400	107.400	1.000
89.800	107.400	91.600	107.400	1.000
89.400	107.400	90.800	107.400	1.000
89.000	107.400	90.200	107.400	1.000
88.700	107.400	89.400	107.400	1.000
88.200	107.400	88.400	107.400	1.000
87.700	107.400	88.100	107.400	1.000
87.400	107.400	88.300	107.500	1.000
87.000	107.500	88.700	107.500	1.000
86.600	107.500	88.800	107.500	1.000
86.300	107.500	88.200	107.500	1.000
85.700	107.500	87.200	107.500	1.000
85.300	107.500	86.400	107.500	1.000
85.300	107.500	85.800	107.500	1.000
85.400	107.500	85.700	107.500	1.000
85.500	107.600	86.600	107.600	1.000
85.400	107.600	87.700	107.600	1.000
85.700	107.600	88.100	107.600	1.000
87.800	107.600	88.200	107.600	1.000
92.500	107.500	88.000	107.600	1.001
98.200	107.500	87.900	107.600	1.001
102.400	107.500	90.700	107.600	1.001
105.900	107.500	98.100	107.600	1.001
109.800	107.500	107.100	107.600	1.001
114.400	107.500	112.900	107.600	1.001
119.100	107.500	115.700	107.600	1.001
122.800	107.500	119.100	107.600	1.001
126.000	107.500	124.000	107.600	1.001
129.000	107.500	128.300	107.600	1.001
131.500	107.500	130.300	107.600	1.001
134.000	107.500	131.400	107.700	1.001
136.100	107.600	133.500	107.700	1.001
138.000	107.600	136.200	107.700	1.001
139.600	107.600	138.300	107.700	1.001
141.100	107.600	140.300	107.700	1.001
142.600	107.600	141.800	107.700	1.001
144.300	107.700	143.200	107.700	1.001
145.700	107.700	144.600	107.800	1.001
147.000	107.700	146.100	107.800	1.001
148.200	107.700	147.700	107.800	1.001
149.300	107.800	149.100	107.800	1.001
149.900	107.800	150.500	107.900	1.001
150.000	107.800	151.200	107.900	1.001
149.400	107.900	151.700	107.900	1.001
148.200	107.900	151.700	107.900	1.000
145.800	107.900	151.500	108.000	1.000
142.100	108.000	150.100	108.000	1.000
137.500	108.000	147.600	108.000	1.001
135.500	108.000	144.100	108.100	1.001
134.100	108.000	138.500	108.100	1.001
132.800	108.100	131.200	108.200	1.001
132.100	108.100	127.100	108.200	1.001
131.500	108.100	130.200	108.200	1.001
130.700	108.100	132.200	108.200	1.001
129.800	108.200	131.100	108.200	1.001
128.700	108.200	130.400	108.300	1.001
127.300	108.200	129.300	108.300	1.001
125.900	108.200	127.300	108.300	1.001
124.600	108.200	125.100	108.300	1.001
123.000	108.200	123.300	108.400	1.001
121.500	108.300	122.100	108.400	1.001
119.900	108.300	120.500	108.400	1.001
118.300	108.300	118.800	108.400	1.001
116.500	108.300	117.500	108.400	1.001
115.200	108.300	115.900	108.400	1.001
113.600	108.300	114.100	108.500	1.001
112.200	108.400	112.700	108.500	1.001
110.800	108.400	111.400	108.500	1.001
109.500	108.400	110.000	108.500	1.001
108.300	108.400	108.700	108.500	1.001
107.200	108.400	107.500	108.500	1.001
106.200	108.400	106.600	108.500	1.001
105.100	108.400	105.500	108.600	1.001
104.100	108.400	104.600	108.600	1.001
103.400	108.500	104.000	108.600	1.001
102.500	108.500	103.100	108.600	1.001
101.600	108.500	102.000	108.600	1.001
100.800	108.500	101.100	108.600	1.001
100.100	108.500	100.400	108.600	1.001
99.400	108.500	99.700	108.600	1.001
98.700	108.500	98.900	108.600	1.001
97.900	108.500	98.300	108.700	1.001
97.300	108.500	97.600	108.700	1.001
96.700	108.600	97.100	108.700	1.001
96.200	108.600	96.400	108.700	1.001
95.600	108.600	95.800	108.700	1.001
95.100	108.600	95.400	108.700	1.001
94.600	108.600	94.700	108.700	1.001
94.100	108.600	94.400	108.700	1.001
93.400	108.600	94.000	108.700	1.001
93.000	108.600	93.600	108.800	1.001
92.400	108.600	93.000	108.800	1.001
91.900	108.600	92.400	108.800	1.001
91.400	108.600	92.100	108.800	1.001
91.000	108.700	91.700	108.800	1.001
90.600	108.700	91.200	108.800	1.001
90.300	108.700	90.700	108.800	1.001
90.000	108.700	90.400	108.800	1.001
89.800	108.700	90.200	108.800	1.001
89.600	108.700	90.400	108.800	1.001
89.200	108.700	90.800	108.800	1.001
88.800	108.700	90.800	108.800	1.001
88.200	108.700	90.200	108.800	1.001
87.800	108.700	89.300	108.900	1.001
87.400	108.700	88.500	108.900	1.001
87.000	108.700	87.800	108.900	1.001
86.500	108.700	86.400	108.900	1.001
86.000	108.700	86.100	108.900	1.001
85.600	108.700	86.600	108.900	1.001
85.100	108.700	86.800	108.900	1.001
84.600	108.800	86.400	108.900	1.001
84.100	108.800	85.700	108.900	1.001
83.500	108.800	85.000	108.900	1.001
83.000	108.800	84.300	108.900	1.001
82.600	108.800	83.200	108.900	1.002
82.600	108.800	82.700	108.900	1.001
82.900	108.800	82.800	108.900	1.001
82.700	108.800	84.100	108.900	1.001
82.300	108.800	85.100	108.900	1.001
82.900	108.800	85.500	108.900	1.002
85.600	108.700	85.400	108.900	1.002
90.400	108.700	85.100	108.900	1.002
95.900	108.700	85.500	108.900	1.002
100.400	108.700	88.600	108.800	1.002
104.100	108.700	95.200	108.800	1.001
108.200	108.600	103.800	108.800	1.001
112.500	108.700	110.200	108.800	1.001
117.000	108.700	113.700	108.800	1.001
119.900	108.700	117.000	108.800	1.001
122.500	108.700	120.800	108.800	1.001
124.600	108.700	124.200	108.800	1.001
127.100	108.800	126.200	108.900	1.001
129.100	108.800	127.300	108.900	1.001
130.700	108.800	128.700	108.900	1.001
132.100	108.800	130.500	108.900	1.001
133.500	108.800	132.600	108.900	1.001
134.800	108.800	134.500	108.900	1.001
136.000	108.800	135.700	108.900	1.001
137.300	108.900	136.800	108.900	1.001
138.600	108.900	138.100	109.000	1.001
139.800	108.900	139.300	109.000	1.001
140.700	108.900	140.500	109.000	1.001
141.400	108.900	141.800	109.000	1.001
141.700	108.900	142.800	109.000	1.001
141.300	108.900	143.500	109.000	1.001
140.300	109.000	143.600	109.000	1.001
138.100	109.000	143.300	109.100	1.001
134.700	109.000	142.300	109.100	1.001
130.400	109.000	140.600	109.100	1.001
128.900	109.000	137.200	109.100	1.001
128.000	109.000	131.800	109.100	1.001
126.900	109.000	125.400	109.100	1.001
126.500	109.000	120.400	109.100	1.001
126.000	109.000	123.500	109.100	1.001
125.800	109.000	126.400	109.100	1.001
125.200	109.000	126.000	109.100	1.001
124.200	109.000	125.800	109.100	1.001
123.300	109.000	125.000	109.100	1.001
122.400	109.000	123.200	109.100	1.001
121.200	109.000	121.500	109.200	1.001
119.900	109.000	120.000	109.200	1.001
118.400	109.000	118.700	109.200	1.001
117.000	109.100	117.600	109.200	1.001
115.400	109.100	116.500	109.200	1.001
113.800	109.100	115.100	109.200	1.001
112.400	109.100	113.400	109.200	1.001
111.100	109.100	111.900	109.200	1.001
109.700	109.100	110.500	109.200	1.001
108.500	109.100	109.300	109.200	1.001
107.200	109.100	107.900	109.200	1.001
106.100	109.100	106.600	109.200	1.001
105.000	109.100	105.600	109.200	1.001
104.000	109.100	104.800	109.200	1.001
103.000	109.100	103.900	109.200	1.001
102.100	109.100	102.700	109.200	1.001
101.300	109.100	102.100	109.200	1.001
100.400	109.100	101.300	109.200	1.001
99.700	109.100	100.400	109.200	1.001
99.000	109.100	99.500	109.200	1.001
98.200	109.100	98.800	109.200	1.001
97.600	109.100	98.200	109.200	1.001
97.100	109.100	97.600	109.200	1.001
96.400	109.100	96.700	109.200	1.001
95.800	109.100	96.000	109.200	1.001
95.300	109.100	95.700	109.200	1.001
94.900	109.100	95.100	109.200	1.001
94.500	109.100	94.700	109.200	1.001
94.000	109.100	94.400	109.200	1.001
93.600	109.100	93.800	109.200	1.001
93.100	109.100	93.400	109.200	1.001
92.700	109.100	92.800	109.200	1.001
92.200	109.100	92.400	109.200	1.001
91.800	109.100	92.200	109.200	1.001
91.300	109.100	91.800	109.200	1.001
91.000	109.100	91.500	109.300	1.001
90.600	109.100	91.200	109.300	1.001
90.200	109.100	90.500	109.300	1.001
89.900	109.100	90.200	109.300	1.001
89.600	109.100	89.800	109.300	1.001
89.600	109.100	89.700	109.300	1.001
89.400	109.100	90.100	109.300	1.001
89.100	109.100	90.800	109.300	1.001
88.700	109.100	90.700	109.300	1.001
88.200	109.100	90.000	109.300	1.001
87.800	109.100	89.000	109.300	1.001
87.300	109.100	88.500	109.300	1.001
87.000	109.100	87.700	109.300	1.001
86.700	109.100	86.700	109.300	1.001
86.200	109.100	86.500	109.300	1.001
85.800	109.100	86.600	109.300	1.001
85.400	109.100	86.900	109.300	1.001
85.100	109.100	86.600	109.300	1.001
84.700	109.100	86.200	109.300	1.001
84.100	109.100	85.600	109.300	1.002
83.600	109.100	84.900	109.300	1.002
83.400	109.100	84.100	109.300	1.002
83.600	109.100	83.700	109.300	1.002
83.900	109.100	84.000	109.300	1.002
83.700	109.100	85.100	109.300	1.002
83.600	109.100	86.300	109.300	1.002
84.400	109.100	86.700	109.300	1.002
87.900	109.100	86.500	109.300	1.002
93.100	109.100	86.200	109.300	1.002
98.500	109.100	87.100	109.300	1.001
102.000	109.100	91.200	109.300	1.001
105.600	109.100	98.500	109.300	1.001
109.900	109.100	106.700	109.300	1.001
114.400	109.100	111.500	109.300	1.001
118.400	109.100	114.000	109.300	1.001
121.400	109.100	117.900	109.300	1.001
124.200	109.100	122.600	109.200	1.001
127.100	109.100	125.800	109.200	1.001
129.400	109.100	127.100	109.200	1.001
131.500	109.100	128.500	109.200	1.001
133.100	109.100	130.800	109.200	1.001
134.700	109.100	133.200	109.200	1.001
136.100	109.100	135.200	109.200	1.001
137.700	109.100	136.600	109.200	1.001
139.100	109.100	138.000	109.200	1.001
140.300	109.100	139.400	109.200	1.001
141.500	109.100	140.600	109.200	1.001
142.600	109.100	142.000	109.200	1.001
143.600	109.100	143.500	109.200	1.001
144.200	109.100	144.500	109.200	1.001
144.400	109.100	145.200	109.200	1.001
144.000	109.100	145.900	109.200	1.001
142.700	109.100	146.100	109.200	1.001
140.400	109.100	145.800	109.200	1.001
136.800	109.100	144.800	109.200	1.001
132.600	109.100	142.700	109.200	1.001
131.300	109.100	139.400	109.200	1.001
130.200	109.100	134.300	109.200	1.001
129.400	109.100	127.800	109.200	1.001
128.600	109.100	123.400	109.200	1.001
128.300	109.000	126.300	109.200	1.001
127.700	109.000	128.700	109.200	1.001
127.000	109.000	128.000	109.200	1.001
125.900	109.000	128.000	109.200	1.001
124.700	109.000	127.000	109.200	1.001
123.700	109.000	125.100	109.200	1.001
122.500	109.000	123.000	109.200	1.001
121.200	109.000	121.500	109.200	1.001
119.700	109.000	120.500	109.200	1.001
118.400	109.000	119.300	109.200	1.001
116.800	109.000	118.000	109.100	1.001
115.300	109.000	116.400	109.100	1.001
114.000	109.000	114.900	109.100	1.001
112.600	109.000	113.600	109.100	1.001
111.200	109.000	112.200	109.100	1.001
109.800	109.000	110.900	109.100	1.001
108.600	109.000	109.700	109.100	1.001
107.400	109.000	108.700	109.100	1.001
106.300	109.000	107.600	109.100	1.001
105.300	109.000	106.300	109.100	1.001
104.400	109.000	105.400	109.100	1.001
103.400	109.000	104.500	109.100	1.001
102.500	108.900	103.400	109.100	1.001
101.600	108.900	102.500	109.100	1.001
100.900	108.900	101.800	109.100	1.001
100.100	108.900	101.000	109.100	1.002
99.500	108.900	100.400	109.100	1.002
98.800	108.900	99.800	109.100	1.002
98.200	108.900	98.900	109.100	1.002
97.500	108.900	98.100	109.100	1.002
96.900	108.900	97.800	109.100	1.002
96.300	108.900	97.000	109.100	1.002
95.800	108.900	96.500	109.100	1.002
95.300	108.900	95.800	109.100	1.002
94.900	108.900	95.300	109.100	1.002
94.300	108.900	94.900	109.100	1.002
93.800	108.900	94.300	109.000	1.002
93.400	108.900	94.100	109.000	1.002
92.800	108.900	93.500	109.000	1.002
92.300	108.900	93.100	109.000	1.002
91.900	108.900	93.000	109.000	1.002
91.400	108.800	92.600	109.000	1.002
91.000	108.800	92.000	109.000	1.002
90.600	108.800	91.400	109.000	1.002
90.200	108.800	90.900	109.000	1.002
89.800	108.800	90.300	109.000	1.002
89.500	108.800	90.000	109.000	1.002
89.500	108.800	89.900	109.000	1.002
89.200	108.800	90.100	109.000	1.002
88.900	108.800	90.600	109.000	1.002
88.500	108.800	90.800	109.000	1.002
88.000	108.800	90.100	109.000	1.002
87.400	108.800	89.200	109.000	1.002
87.100	108.800	88.400	109.000	1.002
86.600	108.800	87.700	109.000	1.002
86.200	108.800	86.600	108.900	1.002
85.800	108.800	86.100	108.900	1.002
85.300	108.800	86.200	108.900	1.002
85.000	108.800	86.500	108.900	1.002
84.600	108.700	86.600	108.900	1.002
84.100	108.700	86.200	108.900	1.002
83.700	108.700	85.700	108.900	1.002
83.300	108.700	84.600	108.900	1.002
83.000	108.700	83.600	108.900	1.002
83.100	108.700	83.300	108.900	1.002
83.300	108.700	83.700	108.900	1.002
83.300	108.700	84.900	108.900	1.002
83.300	108.700	86.000	108.900	1.002
84.500	108.700	85.600	108.900	1.002
88.600	108.600	85.500	108.800	1.002
93.900	108.600	85.400	108.800	1.002
98.800	108.600	86.300	108.800	1.002
102.300	108.500	90.900	108.700	1.002
105.900	108.500	99.400	108.700	1.002
110.100	108.500	107.200	108.700	1.002
115.000	108.500	111.100	108.600	1.002
118.800	108.400	113.900	108.600	1.001
121.700	108.400	118.000	108.600	1.001
124.500	108.400	122.400	108.500	1.001
127.200	108.400	125.300	108.500	1.001
129.700	108.400	126.900	108.500	1.001
131.900	108.300	129.100	108.500	1.001
133.700	108.300	131.500	108.500	1.001
135.400	108.300	133.700	108.400	1.001
136.700	108.300	135.500	108.400	1.001
138.200	108.300	137.200	108.400	1.001
139.700	108.200	138.700	108.400	1.001
141.200	108.200	139.900	108.400	1.001
142.500	108.200	141.600	108.300	1.001
143.600	108.200	142.900	108.300	1.001
144.700	108.200	144.000	108.300	1.001
145.400	108.100	145.500	108.300	1.001
145.600	108.100	146.500	108.300	1.001
145.200	108.100	146.900	108.200	1.001
144.300	108.100	147.300	108.200	1.001
142.300	108.100	147.100	108.200	1.001
138.900	108.100	146.300	108.200	1.001
134.600	108.100	144.700	108.200	1.001
131.500	108.100	142.000	108.200	1.001
130.400	108.100	137.600	108.200	1.001
129.000	108.100	131.000	108.300	1.002
128.300	108.100	124.600	108.200	1.001
127.600	108.100	123.600	108.200	1.001
127.100	108.100	127.600	108.200	1.001
126.100	108.100	127.700	108.200	1.001
125.200	108.000	126.900	108.200	1.001
124.100	108.000	126.100	108.200	1.001
122.800	108.000	124.700	108.200	1.001
121.500	108.000	122.900	108.200	1.001
120.100	108.000	120.800	108.200	1.001
118.700	108.000	119.400	108.200	1.001
117.100	108.000	118.300	108.200	1.001
115.600	108.000	117.100	108.200	1.001
114.000	108.000	115.400	108.200	1.001
112.300	108.000	113.500	108.200	1.001
110.900	108.000	111.700	108.200	1.001
109.500	108.000	110.400	108.200	1.001
108.100	108.000	109.300	108.200	1.001
106.800	108.000	108.000	108.200	1.001
105.500	108.000	106.600	108.100	1.002
104.400	108.000	105.200	108.100	1.002
103.300	108.000	104.100	108.100	1.002
102.300	108.000	103.200	108.100	1.002
101.200	108.000	102.200	108.100	1.002
100.400	108.000	101.300	108.100	1.002
99.400	107.900	100.200	108.100	1.002
98.700	107.900	99.400	108.100	1.002
97.800	107.900	98.900	108.100	1.002
97.100	107.900	97.900	108.100	1.002
96.400	107.900	96.800	108.100	1.002
95.700	107.900	96.000	108.100	1.002
95.000	107.900	95.600	108.100	1.002
94.300	107.900	95.100	108.100	1.002
93.800	107.900	94.400	108.100	1.002
93.100	107.900	93.600	108.100	1.002
92.600	107.900	92.900	108.000	1.002
92.000	107.900	92.600	108.000	1.002
91.600	107.800	92.100	108.000	1.002
91.000	107.800	91.600	108.000	1.002
90.600	107.800	91.100	108.000	1.002
90.000	107.800	90.600	108.000	1.002
89.500	107.800	90.100	108.000	1.002
89.000	107.800	89.700	108.000	1.002
88.500	107.800	89.300	108.000	1.002
88.200	107.800	88.700	108.000	1.002
87.800	107.800	88.300	108.000	1.002
87.400	107.800	88.200	108.000	1.002
87.000	107.800	87.600	108.000	1.002
86.700	107.800	87.300	107.900	1.002
86.500	107.700	87.000	107.900	1.002
86.400	107.700	86.900	107.900	1.002
86.200	107.700	87.400	107.900	1.002
85.800	107.700	87.800	107.900	1.002
85.400	107.700	87.700	107.900	1.002
84.900	107.700	86.800	107.900	1.002
84.400	107.700	85.900	107.900	1.002
84.100	107.700	85.200	107.900	1.002
83.700	107.700	84.100	107.900	1.002
83.200	107.700	83.100	107.900	1.002
82.700	107.700	83.000	107.900	1.002
82.200	107.700	83.500	107.900	1.002
81.900	107.700	83.500	107.900	1.002
81.400	107.700	83.100	107.800	1.002
80.900	107.700	82.600	107.800	1.002
80.300	107.700	82.000	107.800	1.002
79.900	107.600	81.300	107.800	1.002
79.700	107.600	80.600	107.800	1.002
80.100	107.600	80.200	107.800	1.002
80.400	107.600	80.700	107.800	1.002
79.900	107.600	82.000	107.800	1.002
79.900	107.600	82.800	107.800	1.002
81.500	107.500	83.200	107.800	1.002
85.500	107.500	83.200	107.700	1.003
90.800	107.400	82.800	107.700	1.003
95.700	107.400	83.600	107.600	1.002
99.000	107.300	87.600	107.600	1.002
102.700	107.300	95.200	107.500	1.002
107.000	107.200	103.200	107.500	1.002
111.600	107.300	108.000	107.500	1.002
114.500	107.300	110.800	107.500	1.002
117.300	107.300	114.100	107.500	1.002
119.900	107.300	118.400	107.500	1.002
122.200	107.300	121.100	107.500	1.002
124.300	107.300	122.500	107.500	1.002
126.200	107.300	123.900	107.500	1.002
127.700	107.300	125.600	107.400	1.002
129.000	107.300	127.700	107.400	1.002
130.100	107.300	129.300	107.400	1.002
131.200	107.200	130.400	107.400	1.002
132.300	107.200	131.800	107.400	1.002
133.300	107.200	133.000	107.400	1.002
134.300	107.200	133.900	107.400	1.002
135.000	107.200	134.800	107.400	1.002
135.600	107.200	135.900	107.300	1.002
135.800	107.200	136.800	107.300	1.002
135.700	107.100	137.500	107.300	1.002
135.000	107.100	137.800	107.300	1.002
133.300	107.100	137.900	107.300	1.002
130.300	107.100	137.300	107.300	1.002
126.300	107.000	135.900	107.200	1.002
123.900	107.000	133.600	107.200	1.002
123.400	107.000	129.700	107.200	1.002
122.300	107.000	124.300	107.200	1.002
121.700	107.000	118.400	107.100	1.002
121.300	106.900	116.900	107.100	1.002
120.900	106.900	121.000	107.100	1.002
120.300	106.900	121.400	107.100	1.002
119.600	106.900	120.900	107.100	1.002
118.700	106.900	121.000	107.100	1.002
117.700	106.900	119.600	107.000	1.002
116.600	106.800	117.800	107.000	1.002
115.700	106.800	116.500	107.000	1.002
114.400	106.800	115.400	107.000	1.002
113.200	106.800	114.500	107.000	1.002
111.800	106.800	113.300	107.000	1.002
110.300	106.700	112.100	107.000	1.002
109.100	106.700	110.600	106.900	1.002
107.700	106.700	109.300	106.900	1.002
106.500	106.700	108.100	106.900	1.002
105.200	106.700	106.700	106.900	1.002
103.900	106.700	105.400	106.900	1.002
102.900	106.700	104.400	106.900	1.002
101.800	106.600	103.300	106.900	1.002
100.600	106.600	102.400	106.900	1.002
99.600	106.600	101.300	106.800	1.002
98.700	106.600	100.300	106.800	1.002
97.800	106.600	99.300	106.800	1.002
97.000	106.600	98.400	106.800	1.002
96.300	106.600	97.800	106.800	1.002
95.600	106.500	97.000	106.800	1.002
94.900	106.500	96.200	106.800	1.002
94.300	106.500	95.500	106.800	1.002
93.700	106.500	94.700	106.800	1.002
93.100	106.500	94.000	106.700	1.002
92.500	106.500	93.400	106.700	1.002
91.800	106.500	92.800	106.700	1.002
91.300	106.500	92.300	106.700	1.002
90.900	106.400	91.800	106.700	1.002
90.400	106.400	91.200	106.700	1.002
90.000	106.400	90.800	106.700	1.002
89.600	106.400	90.400	106.700	1.002
89.100	106.400	89.900	106.700	1.003
88.600	106.400	89.400	106.600	1.003
88.100	106.400	88.900	106.600	1.003
87.900	106.400	88.600	106.600	1.003
87.500	106.300	88.400	106.600	1.003
87.100	106.300	88.000	106.600	1.003
86.600	106.300	87.700	106.600	1.003
86.200	106.300	87.400	106.600	1.003
86.000	106.300	86.900	106.600	1.003
85.600	106.300	86.400	106.600	1.003
85.400	106.300	86.000	106.500	1.003
85.200	106.200	85.900	106.500	1.003
85.200	106.200	85.900	106.500	1.003
84.900	106.200	86.200	106.500	1.003
84.600	106.200	86.500	106.500	1.003
84.100	106.200	86.500	106.500	1.003
83.500	106.200	86.000	106.500	1.003
83.100	106.200	84.900	106.500	1.003
82.600	106.200	84.400	106.500	1.003
82.300	106.100	83.700	106.400	1.003
81.800	106.100	82.600	106.400	1.003
81.400	106.100	82.200	106.400	1.003
81.100	106.100	82.200	106.400	1.003
80.700	106.100	82.400	106.400	1.003
80.400	106.100	82.200	106.400	1.003
79.900	106.100	81.900	106.400	1.003
79.400	106.100	81.300	106.400	1.003
79.100	106.000	80.500	106.400	1.003
79.100	106.000	79.800	106.300	1.003
79.200	106.000	79.700	106.300	1.003
79.300	106.000	80.300	106.300	1.003
79.300	106.000	81.400	106.300	1.003
79.800	106.000	81.900	106.300	1.003
79.800	105.900	81.600	106.300	1.003
82.900	105.900	81.800	106.200	1.004
87.900	105.800	81.900	106.200	1.004
92.900	105.800	83.600	106.200	1.004
96.700	105.700	90.100	106.100	1.004
99.500	105.700	99.000	106.100	1.004
103.200	105.600	104.900	106.000	1.004
107.900	105.600	107.100	106.000	1.004
112.000	105.500	110.000	106.000	1.004
115.200	105.500	114.500	105.900	1.004
117.600	105.500	118.400	105.900	1.004
120.200	105.400	120.500	105.900	1.004
122.600	105.400	121.700	105.800	1.004
124.900	105.400	123.700	105.800	1.004
126.800	105.300	126.000	105.800	1.004
128.200	105.300	128.100	105.700	1.004
129.600	105.300	129.800	105.700	1.004
130.800	105.200	131.400	105.700	1.004
132.000	105.200	132.500	105.700	1.004
133.000	105.200	133.500	105.600	1.004
134.100	105.100	134.400	105.600	1.004
135.100	105.100	135.500	105.600	1.004
135.900	105.100	136.900	105.600	1.004
136.400	105.100	137.600	105.500	1.004
136.600	105.000	138.200	105.500	1.004
136.400	105.000	138.300	105.500	1.004
135.600	105.000	138.200	105.500	1.004
133.900	105.000	137.900	105.400	1.004
131.000	105.000	136.600	105.400	1.004
127.100	105.000	134.400	105.400	1.004
124.200	105.000	131.000	105.400	1.004
123.700	105.000	125.900	105.400	1.004
122.300	105.000	119.900	105.400	1.004
121.400	105.000	117.000	105.400	1.004
120.900	104.900	120.400	105.400	1.004
120.300	104.900	121.400	105.300	1.004
119.700	104.900	120.400	105.300	1.004
119.000	104.900	120.200	105.300	1.004
118.100	104.900	119.200	105.300	1.004
117.100	104.900	117.500	105.300	1.004
116.100	104.800	115.700	105.300	1.004
114.900	104.800	114.400	105.200	1.004
113.600	104.800	113.800	105.200	1.004
112.400	104.800	112.900	105.200	1.004
111.000	104.800	111.600	105.200	1.004
109.500	104.800	109.900	105.200	1.004
108.100	104.800	108.200	105.200	1.004
106.700	104.800	106.900	105.200	1.004
105.500	104.800	106.000	105.200	1.004
104.200	104.700	104.500	105.100	1.004
103.000	104.700	103.100	105.100	1.004
101.800	104.700	102.100	105.100	1.004
100.600	104.700	101.200	105.100	1.004
99.600	104.700	100.100	105.100	1.004
98.500	104.700	99.000	105.100	1.004
97.600	104.700	98.000	105.100	1.004
96.800	104.700	97.300	105.000	1.004
95.800	104.600	96.500	105.000	1.004
95.100	104.600	95.700	105.000	1.004
94.300	104.600	94.800	105.000	1.004
93.600	104.600	94.200	105.000	1.004
93.000	104.600	93.600	105.000	1.004
92.300	104.600	92.800	105.000	1.004
91.600	104.600	92.100	104.900	1.004
91.000	104.500	91.300	104.900	1.004
90.500	104.500	90.600	104.900	1.004
90.000	104.500	90.300	104.900	1.004
89.500	104.500	89.800	104.900	1.004
89.000	104.500	89.000	104.900	1.004
88.400	104.500	88.400	104.800	1.004
87.800	104.400	88.200	104.800	1.004
87.400	104.400	87.700	104.800	1.004
86.900	104.400	87.200	104.800	1.003
86.500	104.400	86.900	104.800	1.003
86.000	104.400	86.500	104.700	1.003
85.500	104.400	86.200	104.700	1.003
85.100	104.300	85.800	104.700	1.003
84.600	104.300	85.300	104.700	1.003
84.200	104.300	84.800	104.700	1.003
83.800	104.300	84.400	104.700	1.003
83.400	104.300	84.000	104.600	1.003
83.100	104.300	83.700	104.600	1.003
82.900	104.200	83.400	104.600	1.003
82.700	104.200	83.300	104.600	1.003
82.600	104.200	83.600	104.600	1.003
82.400	104.200	84.000	104.500	1.003
82.000	104.200	84.100	104.500	1.003
81.400	104.200	83.400	104.500	1.003
80.900	104.100	82.400	104.500	1.003
80.500	104.100	81.600	104.500	1.003
80.200	104.100	80.700	104.500	1.003
79.600	104.100	79.600	104.400	1.003
79.200	104.100	79.200	104.400	1.003
78.700	104.100	79.500	104.400	1.003
78.300	104.000	79.500	104.400	1.003
77.900	104.000	79.300	104.400	1.003
77.500	104.000	79.100	104.400	1.003
77.000	104.000	78.400	104.300	1.003
76.500	104.000	77.700	104.300	1.003
76.100	103.900	77.300	104.300	1.003
76.100	103.900	76.900	104.300	1.003
76.300	103.900	77.200	104.200	1.003
76.400	103.800	78.100	104.200	1.004
76.300	103.700	78.500	104.200	1.004
76.700	103.700	78.800	104.100	1.005
79.500	103.600	79.100	104.100	1.005
84.300	103.500	78.800	104.000	1.005
89.600	103.400	80.100	103.900	1.005
93.300	103.300	85.800	103.800	1.004
96.600	103.200	94.800	103.700	1.005
100.400	103.200	101.700	103.600	1.005
104.800	103.100	104.600	103.600	1.005
108.500	103.000	106.800	103.500	1.005
110.700	103.000	110.900	103.500	1.005
113.200	102.900	114.200	103.400	1.005
115.800	102.800	115.600	103.300	1.005
117.900	102.800	116.900	103.300	1.005
119.700	102.700	118.700	103.200	1.005
121.000	102.600	121.100	103.200	1.005
122.300	102.600	122.900	103.100	1.005
123.400	102.500	123.900	103.000	1.005
124.300	102.500	125.000	103.000	1.005
125.300	102.400	126.200	102.900	1.005
126.100	102.300	127.200	102.900	1.005
127.000	102.300	127.900	102.800	1.005
127.800	102.200	128.800	102.800	1.005
128.400	102.200	129.600	102.700	1.005
128.600	102.100	130.200	102.600	1.005
128.600	102.100	130.500	102.600	1.005
128.100	102.100	130.600	102.500	1.005
126.900	102.000	130.500	102.500	1.005
124.700	102.000	129.800	102.500	1.004
121.400	102.000	128.200	102.500	1.005
117.500	102.000	125.500	102.500	1.005
116.600	101.900	121.400	102.500	1.005
115.800	101.900	115.900	102.400	1.005
114.800	101.900	110.400	102.400	1.005
114.300	101.800	110.600	102.300	1.005
114.100	101.800	114.600	102.300	1.005
113.800	101.800	114.400	102.200	1.005
113.300	101.700	114.200	102.200	1.005
112.600	101.700	114.000	102.200	1.005
111.800	101.700	112.700	102.200	1.005
111.100	101.700	111.300	102.100	1.005
110.100	101.600	110.100	102.100	1.005
109.100	101.600	109.300	102.100	1.005
108.100	101.600	108.400	102.100	1.005
106.900	101.600	107.400	102.100	1.005
105.600	101.600	106.100	102.100	1.005
104.300	101.600	105.000	102.000	1.005
103.000	101.600	103.500	102.000	1.005
101.800	101.600	102.100	102.000	1.005
100.600	101.500	101.000	102.000	1.005
99.200	101.500	100.200	102.000	1.005
98.100	101.500	98.800	102.000	1.005
97.100	101.500	97.500	102.000	1.005
96.000	101.500	96.700	101.900	1.005
95.100	101.500	95.700	101.900	1.005
94.100	101.500	94.700	101.900	1.005
93.300	101.400	94.000	101.900	1.005
92.500	101.400	93.200	101.900	1.005
91.700	101.400	92.200	101.900	1.005
91.000	101.400	91.500	101.900	1.005
90.300	101.400	90.900	101.800	1.005
89.600	101.400	90.300	101.800	1.005
89.000	101.400	89.600	101.800	1.005
88.300	101.300	88.900	101.800	1.005
87.800	101.300	88.100	101.800	1.005
87.300	101.300	87.500	101.800	1.005
86.700	101.300	87.100	101.700	1.005
86.300	101.300	86.600	101.700	1.005
85.800	101.300	86.000	101.700	1.005
85.400	101.200	85.700	101.700	1.004
84.900	101.200	85.400	101.700	1.004
84.500	101.200	84.900	101.700	1.004
84.200	101.200	84.500	101.600	1.004
83.800	101.200	84.200	101.600	1.004
83.400	101.200	84.000	101.600	1.004
83.100	101.200	83.700	101.600	1.004
82.600	101.100	83.300	101.600	1.004
82.200	101.100	82.800	101.600	1.004
82.100	101.100	82.500	101.600	1.004
81.700	101.100	82.400	101.500	1.004
81.100	101.100	82.200	101.500	1.004
81.800	101.100	82.000	101.500	1.004
82.000	101.100	82.200	101.500	1.004
81.600	101.000	82.600	101.500	1.004
80.500	101.000	82.900	101.500	1.004
80.600	101.000	82.700	101.500	1.004
80.200	101.000	82.100	101.500	1.004
79.500	101.000	81.300	101.500	1.004
79.000	101.000	80.700	101.400	1.005
78.700	101.000	79.700	101.400	1.005
79.000	101.000	78.900	101.400	1.004
78.800	101.000	78.900	101.400	1.004
78.000	100.900	79.100	101.400	1.004
77.200	100.900	79.000	101.400	1.004
77.100	100.900	78.500	101.400	1.004
76.800	100.900	78.100	101.400	1.004
76.100	100.900	77.400	101.400	1.004
75.400	100.900	76.600	101.300	1.004
77.400	100.900	76.100	101.300	1.004
75.200	100.900	76.100	101.300	1.004
76.800	100.800	76.800	101.300	1.004
77.200	100.800	77.800	101.300	1.004
76.800	100.800	78.700	101.200	1.005
77.600	100.700	79.200	101.200	1.005
80.800	100.700	78.900	101.200	1.005
86.100	100.600	78.700	101.200	1.005
91.300	100.600	81.000	101.100	1.005
94.000	100.500	87.900	101.000	1.005
97.000	100.400	96.200	101.000	1.005
101.100	100.400	101.600	100.900	1.005
105.100	100.300	103.700	100.900	1.005
108.300	100.300	106.200	100.800	1.005
110.000	100.200	110.300	100.800	1.005
112.500	100.200	113.700	100.800	1.006
114.600	100.200	115.200	100.700	1.006
116.400	100.100	116.500	100.700	1.006
118.200	100.100	118.100	100.600	1.006
119.500	100.000	119.900	100.600	1.006
120.700	100.000	121.500	100.600	1.006
120.000	100.000	122.700	100.500	1.006
121.000	99.900	123.400	100.500	1.006
121.400	99.900	124.000	100.500	1.006
122.000	99.800	124.700	100.400	1.006
123.400	99.800	125.500	100.400	1.006
123.900	99.700	126.100	100.400	1.006
124.400	99.700	126.500	100.300	1.006
124.600	99.700	126.700	100.300	1.006
124.800	99.700	127.100	100.300	1.006
123.900	99.700	127.000	100.200	1.006
122.400	99.700	126.400	100.200	1.006
119.700	99.600	125.100	100.200	1.006
117.000	99.600	122.900	100.200	1.006
116.900	99.600	119.400	100.200	1.006
116.100	99.600	114.500	100.200	1.006
115.000	99.600	109.600	100.100	1.006
113.300	99.500	108.500	100.100	1.006
113.800	99.500	112.300	100.100	1.005
113.200	99.500	112.500	100.000	1.005
112.700	99.500	111.900	100.000	1.005
111.200	99.500	112.100	100.000	1.005
111.200	99.500	111.500	100.000	1.005
110.300	99.400	110.400	100.000	1.005
109.300	99.400	109.200	100.000	1.005
108.500	99.400	108.200	99.900	1.005
107.200	99.400	107.500	99.900	1.005
106.100	99.400	106.600	99.900	1.005
105.100	99.400	105.500	99.900	1.005
103.700	99.400	104.500	99.900	1.005
103.100	99.400	103.600	99.900	1.005
101.300	99.400	102.500	99.900	1.005
100.400	99.400	101.600	99.900	1.005
99.200	99.400	100.500	99.800	1.005
98.400	99.300	99.600	99.800	1.005
97.600	99.300	98.700	99.800	1.005
96.700	99.300	97.500	99.800	1.005
95.800	99.300	96.300	99.800	1.005
94.800	99.300	95.400	99.800	1.005
93.900	99.300	94.500	99.800	1.005
93.000	99.300	94.100	99.800	1.005
93.100	99.300	93.100	99.800	1.005
91.200	99.300	92.400	99.800	1.005
91.900	99.300	91.600	99.700	1.005
88.900	99.300	90.900	99.700	1.005
89.900	99.300	90.100	99.700	1.005
87.800	99.200	89.500	99.700	1.005
88.500	99.200	89.100	99.700	1.005
87.000	99.200	88.700	99.700	1.005
86.900	99.200	88.100	99.700	1.005
86.600	99.200	87.600	99.700	1.005
85.900	99.200	86.900	99.700	1.005
85.800	99.200	86.700	99.700	1.005
85.200	99.200	86.300	99.600	1.005
84.800	99.200	85.900	99.600	1.005
84.500	99.100	85.600	99.600	1.005
83.400	99.100	85.200	99.600	1.005
82.800	99.100	85.000	99.600	1.005
82.000	99.100	84.700	99.600	1.005
81.900	99.100	84.400	99.600	1.005
81.600	99.100	84.200	99.600	1.005
81.500	99.100	83.800	99.600	1.005
81.800	99.100	83.500	99.600	1.005
82.300	99.000	83.200	99.500	1.005
83.100	99.000	82.800	99.500	1.005
82.400	99.000	82.600	99.500	1.005
82.200	99.000	82.900	99.500	1.005
82.400	99.000	83.100	99.500	1.005
81.700	99.000	83.500	99.500	1.005
81.900	99.000	83.300	99.500	1.005
81.200	99.000	82.600	99.500	1.005
80.900	99.000	81.700	99.500	1.005
79.600	99.000	81.300	99.500	1.005
80.400	99.000	80.400	99.500	1.005
79.300	99.000	79.400	99.500	1.005
80.100	99.000	79.100	99.400	1.005
79.400	99.000	79.200	99.400	1.005
79.300	99.000	79.300	99.400	1.005
79.100	99.000	79.200	99.400	1.005
80.200	99.000	79.000	99.400	1.005
78.800	99.000	78.300	99.400	1.004
77.600	99.000	77.500	99.400	1.004
77.000	99.000	77.100	99.400	1.004
76.900	99.000	77.100	99.400	1.004
76.800	98.900	78.000	99.400	1.004
76.800	98.900	78.700	99.400	1.004
77.700	98.900	78.600	99.300	1.004
80.700	98.900	79.100	99.300	1.005
85.500	98.900	79.300	99.300	1.005
90.900	98.800	79.400	99.300	1.004
94.100	98.800	83.500	99.200	1.004
96.400	98.800	92.300	99.200	1.004
100.100	98.800	100.100	99.200	1.004
104.300	98.800	102.700	99.200	1.004
107.600	98.700	104.100	99.100	1.004
110.100	98.700	108.300	99.100	1.004
112.700	98.700	112.800	99.100	1.004
116.100	98.700	115.600	99.000	1.004
118.300	98.600	117.000	99.000	1.004
120.200	98.600	118.500	99.000	1.004
121.300	98.600	120.400	99.000	1.004
122.600	98.600	122.300	98.900	1.004
124.200	98.600	124.100	98.900	1.004
125.600	98.500	125.600	98.900	1.004
126.400	98.500	127.000	98.900	1.004
127.000	98.500	128.100	98.900	1.004
128.000	98.500	129.000	98.800	1.004
128.900	98.400	129.500	98.800	1.004
129.300	98.400	130.200	98.800	1.004
129.200	98.400	130.900	98.800	1.004
129.500	98.400	131.300	98.700	1.004
129.000	98.300	131.300	98.700	1.004
127.900	98.300	131.700	98.700	1.004
126.500	98.300	131.200	98.700	1.004
124.200	98.300	130.000	98.700	1.004
120.800	98.300	128.500	98.700	1.004
117.600	98.300	125.500	98.700	1.004
117.000	98.300	121.100	98.700	1.004
116.000	98.200	115.700	98.700	1.004
115.100	98.200	111.000	98.600	1.004
114.500	98.200	112.600	98.600	1.004
114.800	98.200	115.600	98.600	1.004
114.300	98.200	114.800	98.600	1.004
113.700	98.200	114.200	98.500	1.004
113.300	98.100	113.600	98.500	1.004
112.000	98.100	112.300	98.500	1.004
109.700	98.100	110.800	98.500	1.004
110.000	98.100	109.800	98.500	1.004
108.700	98.100	108.900	98.500	1.004
107.400	98.100	108.000	98.500	1.004
106.200	98.100	107.100	98.500	1.004
105.000	98.100	105.700	98.500	1.004
103.200	98.000	104.500	98.400	1.004
102.600	98.000	103.400	98.400	1.004
101.700	98.000	102.100	98.400	1.004
100.400	98.000	100.900	98.400	1.004
98.900	98.000	99.600	98.400	1.004
97.600	98.000	98.800	98.400	1.004
97.000	98.000	97.700	98.400	1.004
96.000	98.000	96.600	98.400	1.004
94.500	98.000	95.600	98.400	1.004
93.300	98.000	94.600	98.400	1.004
92.600	98.000	93.800	98.400	1.004
92.200	97.900	93.100	98.400	1.004
91.600	97.900	92.300	98.300	1.004
90.500	97.900	91.500	98.300	1.004
89.700	97.900	90.800	98.300	1.004
89.200	97.900	90.200	98.300	1.004
88.500	97.900	89.200	98.300	1.004
88.300	97.900	88.500	98.300	1.004
87.500	97.900	87.900	98.300	1.004
87.100	97.900	87.400	98.300	1.004
86.800	97.900	86.900	98.300	1.004
85.800	97.800	86.300	98.300	1.004
85.600	97.800	85.900	98.300	1.004
85.200	97.800	85.400	98.300	1.004
84.500	97.800	84.800	98.200	1.004
84.300	97.800	84.300	98.200	1.004
83.800	97.800	84.100	98.200	1.004
83.200	97.800	83.700	98.200	1.004
82.600	97.800	83.500	98.200	1.004
82.500	97.800	83.100	98.200	1.004
82.000	97.800	82.700	98.200	1.004
81.600	97.800	82.400	98.200	1.004
81.400	97.700	82.100	98.200	1.004
80.900	97.700	81.700	98.200	1.004
81.100	97.700	81.400	98.200	1.004
80.800	97.700	81.200	98.100	1.004
80.600	97.700	81.300	98.100	1.004
80.400	97.700	81.700	98.100	1.004
80.300	97.700	82.100	98.100	1.004
79.900	97.700	82.100	98.100	1.004
79.300	97.700	81.500	98.100	1.004
78.600	97.700	80.600	98.100	1.004
78.300	97.700	79.800	98.100	1.004
78.000	97.700	78.900	98.100	1.004
77.400	97.700	78.100	98.100	1.004
77.100	97.700	78.000	98.100	1.004
75.900	97.600	78.200	98.100	1.005
76.300	97.600	78.000	98.100	1.005
75.800	97.600	77.700	98.100	1.005
76.300	97.600	77.000	98.100	1.005
76.100	97.600	76.500	98.100	1.004
75.600	97.600	75.900	98.100	1.004
75.500	97.600	75.100	98.100	1.004
75.900	97.600	75.200	98.000	1.004
79.100	97.600	75.900	98.000	1.004
75.800	97.600	77.000	98.000	1.004
72.200	97.600	77.600	98.000	1.004
75.700	97.600	78.100	98.000	1.004
81.400	97.600	78.000	98.000	1.004
78.500	97.600	77.800	98.000	1.004
77.600	97.600	80.700	98.000	1.005
77.800	97.500	88.300	98.000	1.005
77.700	97.400	96.700	98.000	1.006
78.000	97.400	101.400	98.000	1.007
77.600	97.300	103.400	98.000	1.008
78.500	97.200	106.500	98.000	1.009
78.400	97.100	110.500	98.000	1.010
79.000	97.000	112.900	98.000	1.011
79.100	96.800	114.000	98.000	1.012
79.400	96.700	115.200	98.000	1.013
79.800	96.600	116.600	98.000	1.015
79.600	96.500	118.200	98.000	1.016
79.100	96.300	119.700	98.000	1.017
78.800	96.200	121.000	98.000	1.019
78.800	96.000	121.900	98.000	1.020
78.900	95.900	122.600	98.000	1.022
78.200	95.700	123.100	97.900	1.023
78.300	95.600	123.900	97.900	1.025
78.600	95.400	124.500	97.900	1.026
78.600	95.200	125.100	97.900	1.028
78.600	95.100	125.300	97.900	1.030
78.400	94.900	125.300	97.900	1.031
78.600	94.700	125.200	97.900	1.033
78.400	94.600	124.600	97.800	1.034
78.300	94.400	123.300	97.800	1.036
78.400	94.300	120.900	97.800	1.037
78.400	94.200	117.400	97.800	1.038
78.700	94.000	112.400	97.700	1.039
78.900	93.900	107.400	97.700	1.040
78.700	93.800	106.900	97.700	1.042
78.200	93.700	110.700	97.700	1.043
77.900	93.600	110.900	97.700	1.044
77.500	93.400	110.300	97.700	1.045
77.400	93.300	110.500	97.700	1.046
77.500	93.200	109.900	97.600	1.048
77.300	93.100	108.700	97.600	1.049
77.700	93.000	107.800	97.600	1.050
78.000	92.900	106.800	97.600	1.051
78.400	92.800	106.200	97.600	1.052
76.900	92.700	105.700	97.600	1.053
78.500	92.600	104.500	97.600	1.054
79.300	92.500	103.400	97.600	1.055
79.600	92.400	102.500	97.600	1.056
80.100	92.400	101.400	97.600	1.056
79.000	92.300	100.200	97.600	1.057
77.600	92.200	99.200	97.500	1.058
77.600	92.100	98.600	97.500	1.059
77.500	92.100	97.500	97.500	1.059
77.400	92.000	96.400	97.500	1.060
77.700	91.900	95.600	97.500	1.061
77.700	91.900	94.600	97.500	1.061
77.500	91.800	93.700	97.500	1.062
76.900	91.800	92.700	97.500	1.063
76.900	91.700	91.900	97.500	1.063
76.800	91.700	91.200	97.500	1.064
76.700	91.600	90.600	97.500	1.064
76.800	91.600	90.100	97.500	1.065
76.800	91.500	89.300	97.500	1.065
77.000	91.500	88.400	97.500	1.066
77.200	91.500	87.900	97.500	1.066
77.300	91.400	87.600	97.500	1.066
77.200	91.400	87.200	97.500	1.067
76.900	91.400	86.600	97.500	1.067
76.800	91.300	86.000	97.500	1.067
76.900	91.300	85.600	97.500	1.068
77.000	91.300	85.500	97.500	1.068
77.400	91.300	85.200	97.500	1.068
77.400	91.200	84.800	97.500	1.069
78.000	91.200	84.600	97.500	1.069
78.800	91.200	84.300	97.500	1.069
78.500	91.200	84.000	97.500	1.069
79.100	91.200	83.700	97.500	1.069
79.300	91.200	83.300	97.500	1.069
78.400	91.100	83.100	97.500	1.070
79.900	91.100	82.700	97.500	1.070
79.900	91.100	82.200	97.500	1.070
79.200	91.100	82.000	97.500	1.070
78.700	91.100	81.900	97.500	1.070
79.300	91.100	82.300	97.500	1.070
79.500	91.100	82.700	97.500	1.070
79.200	91.100	83.100	97.500	1.070
80.100	91.100	82.800	97.500	1.070
80.900	91.100	81.800	97.500	1.070
80.700	91.100	81.100	97.500	1.070
81.000	91.100	80.500	97.500	1.070
81.200	91.100	79.700	97.500	1.070
81.600	91.100	79.000	97.500	1.070
81.500	91.100	78.900	97.500	1.070
81.700	91.100	79.100	97.500	1.070
82.000	91.200	79.100	97.500	1.069
82.300	91.200	78.900	97.500	1.069
82.800	91.200	78.300	97.500	1.069
82.100	91.200	77.600	97.500	1.069
82.500	91.200	77.000	97.500	1.069
82.800	91.300	76.800	97.500	1.068
83.000	91.300	77.200	97.500	1.068
82.300	91.300	78.000	97.500	1.068
82.400	91.300	78.300	97.500	1.068
82.500	91.300	78.600	97.500	1.068
82.900	91.400	79.100	97.500	1.067
82.500	91.400	79.000	97.500	1.067
82.500	91.300	80.300	97.500	1.067
82.200	91.300	86.800	97.500	1.068
82.600	91.300	95.700	97.600	1.069
83.000	91.200	101.400	97.600	1.069
82.100	91.200	102.600	97.600	1.070
82.900	91.100	105.400	97.600	1.071
82.900	91.000	110.000	97.600	1.072
83.100	90.900	113.500	97.600	1.073
83.100	90.800	115.400	97.600	1.075
83.000	90.700	116.800	97.600	1.076
82.900	90.600	118.300	97.600	1.077
83.100	90.500	120.300	97.600	1.079
83.200	90.400	122.700	97.600	1.080
82.800	90.300	124.200	97.600	1.082
82.700	90.100	125.100	97.600	1.083
82.500	90.000	125.800	97.700	1.085
82.400	89.900	126.600	97.700	1.087
82.100	89.800	127.300	97.700	1.088
81.800	89.600	128.200	97.700	1.090
81.400	89.500	129.100	97.700	1.092
81.200	89.300	129.700	97.700	1.094
81.400	89.200	130.000	97.700	1.095
81.400	89.100	130.000	97.700	1.097
81.300	88.900	129.500	97.700	1.099
81.000	88.800	128.800	97.700	1.101
81.000	88.700	127.300	97.700	1.103
81.500	88.500	124.900	97.800	1.104
81.500	88.400	121.100	97.800	1.106
81.400	88.300	116.100	97.800	1.107
81.100	88.200	111.000	97.800	1.108
81.300	88.100	110.900	97.800	1.110
81.400	88.000	114.500	97.800	1.111
81.400	87.900	114.200	97.800	1.113
80.900	87.800	113.700	97.800	1.114
80.800	87.700	113.700	97.800	1.115
80.700	87.600	112.500	97.800	1.117
80.200	87.500	110.700	97.800	1.118
79.800	87.400	109.700	97.800	1.119
80.100	87.300	109.100	97.800	1.120
80.400	87.200	108.600	97.800	1.122
80.000	87.100	107.700	97.800	1.123
79.900	87.000	106.400	97.800	1.124
79.600	87.000	105.300	97.800	1.125
79.600	86.900	104.200	97.800	1.126
79.700	86.800	103.300	97.800	1.127
79.600	86.700	102.400	97.800	1.128
79.300	86.700	101.500	97.800	1.129
79.200	86.600	100.400	97.800	1.130
78.900	86.600	99.200	97.800	1.130
78.800	86.500	98.400	97.800	1.131
79.000	86.400	97.400	97.800	1.132
79.300	86.400	96.400	97.800	1.133
78.900	86.300	95.700	97.900	1.133
78.700	86.300	95.000	97.900	1.134
78.800	86.200	94.300	97.900	1.135
79.000	86.200	93.600	97.900	1.135
79.000	86.200	93.100	97.900	1.136
78.800	86.100	92.400	97.900	1.136
78.800	86.100	91.800	97.900	1.137
78.700	86.100	91.200	97.900	1.137
78.600	86.000	90.400	97.900	1.138
78.600	86.000	89.800	97.900	1.138
78.600	86.000	89.500	97.900	1.139
78.600	86.000	89.000	97.900	1.139
78.800	85.900	88.600	97.900	1.139
78.900	85.900	88.200	97.900	1.140
78.800	85.900	87.900	97.900	1.140
78.600	85.900	87.700	97.900	1.140
78.600	85.800	87.400	97.900	1.141
78.800	85.800	87.200	97.900	1.141
78.800	85.800	86.800	97.900	1.141
78.900	85.800	86.400	97.900	1.141
79.000	85.800	86.100	97.900	1.142
78.900	85.800	85.900	98.000	1.142
79.100	85.800	85.600	98.000	1.142
79.200	85.800	85.300	98.000	1.142
79.100	85.800	85.100	98.000	1.142
78.900	85.800	84.900	98.000	1.143
79.100	85.700	85.000	98.000	1.143
79.200	85.700	85.400	98.000	1.143
79.000	85.700	85.800	98.000	1.143
78.800	85.700	85.900	98.000	1.144
78.800	85.700	85.700	98.000	1.144
78.900	85.700	84.800	98.000	1.144
78.900	85.700	84.200	98.000	1.144
78.800	85.700	83.400	98.000	1.144
78.800	85.700	82.500	98.000	1.144
78.700	85.700	82.200	98.100	1.145
78.600	85.700	82.500	98.100	1.145
78.600	85.700	82.900	98.100	1.145
78.500	85.700	82.800	98.100	1.145
78.600	85.700	82.500	98.100	1.145
78.700	85.700	81.600	98.100	1.145
78.600	85.700	81.100	98.100	1.145
78.600	85.700	81.000	98.100	1.146
78.500	85.700	80.900	98.100	1.146
78.300	85.700	81.700	98.200	1.146
78.300	85.700	82.900	98.200	1.146
77.800	85.700	83.200	98.200	1.146
77.600	85.700	84.300	98.200	1.146
77.500	85.700	86.200	98.200	1.147
77.400	85.600	88.100	98.300	1.147
77.300	85.600	93.000	98.300	1.148
77.100	85.500	101.700	98.400	1.150
77.200	85.500	110.900	98.400	1.151
77.100	85.400	116.500	98.500	1.153
76.900	85.300	118.700	98.500	1.155
77.000	85.200	121.700	98.600	1.157
76.900	85.100	125.800	98.600	1.159
77.100	85.000	129.600	98.700	1.161
77.200	84.900	131.500	98.800	1.164
77.200	84.700	133.600	98.800	1.166
77.100	84.600	135.800	98.900	1.169
77.000	84.400	137.500	98.900	1.171
77.200	84.300	139.400	99.000	1.174
77.300	84.100	141.100	99.000	1.177
77.300	84.000	142.300	99.100	1.180
77.200	83.800	142.800	99.100	1.183
77.300	83.700	143.600	99.200	1.186
77.100	83.500	143.800	99.200	1.189
77.200	83.300	144.000	99.300	1.192
77.000	83.200	145.100	99.300	1.195
77.000	83.000	146.200	99.400	1.198
77.200	82.800	147.300	99.400	1.201
77.200	82.600	147.600	99.500	1.204
77.100	82.500	145.800	99.500	1.207
77.000	82.300	144.400	99.600	1.210
77.100	82.200	143.300	99.600	1.212
77.300	82.000	140.700	99.700	1.215
77.300	81.900	135.100	99.700	1.217
77.100	81.800	129.200	99.700	1.220
76.900	81.600	125.600	99.800	1.222
76.900	81.500	128.400	99.800	1.225
77.000	81.400	130.200	99.900	1.227
77.200	81.300	129.600	99.900	1.230
77.100	81.100	130.000	100.000	1.232
77.100	81.000	129.200	100.000	1.234
77.100	80.900	127.100	100.100	1.237
77.100	80.800	125.600	100.100	1.239
77.100	80.700	124.700	100.100	1.241
77.200	80.600	124.000	100.200	1.243
77.100	80.500	123.100	100.200	1.246
77.200	80.400	122.400	100.300	1.248
77.200	80.300	120.500	100.300	1.250
77.200	80.200	118.700	100.400	1.252
77.300	80.100	117.400	100.400	1.254
77.400	80.000	116.100	100.500	1.255
77.300	79.900	115.000	100.500	1.257
77.300	79.900	114.200	100.500	1.259
77.300	79.800	113.000	100.600	1.261
77.200	79.700	111.800	100.600	1.262
76.900	79.700	110.800	100.700	1.264
76.900	79.600	109.900	100.700	1.265
76.700	79.500	109.400	100.800	1.267
76.800	79.500	108.900	100.800	1.268
76.900	79.400	108.000	100.900	1.270
76.800	79.400	107.300	100.900	1.271
76.700	79.300	106.200	100.900	1.272
76.600	79.300	106.000	101.000	1.274
76.500	79.200	105.500	101.000	1.275
76.600	79.200	105.300	101.100	1.276
76.500	79.200	104.500	101.100	1.278
76.700	79.100	104.300	101.200	1.279
76.700	79.100	104.100	101.200	1.280
76.900	79.100	103.100	101.300	1.281
76.600	79.000	102.400	101.300	1.282
76.700	79.000	102.100	101.400	1.284
76.700	79.000	101.400	101.400	1.285
76.600	78.900	101.200	101.500	1.286
76.500	78.900	101.100	101.600	1.287
76.300	78.900	100.600	101.600	1.288
76.300	78.900	99.700	101.700	1.289
76.200	78.800	99.700	101.700	1.290
76.400	78.800	99.400	101.800	1.291
76.500	78.800	98.800	101.800	1.292
76.500	78.800	98.600	101.900	1.293
76.500	78.800	98.000	101.900	1.294
76.500	78.700	97.800	102.000	1.295
76.700	78.700	97.800	102.000	1.296
76.600	78.700	97.700	102.100	1.297
76.400	78.700	98.300	102.100	1.298
76.500	78.700	97.600	102.200	1.298
76.400	78.700	96.200	102.200	1.299
76.300	78.700	95.000	102.300	1.300
76.300	78.700	94.600	102.300	1.301
76.400	78.600	94.000	102.400	1.301
76.300	78.600	92.600	102.400	1.302
76.300	78.600	91.500	102.400	1.303
76.300	78.600	91.600	102.500	1.303
76.200	78.600	91.600	102.500	1.304
76.200	78.600	90.900	102.600	1.304
76.100	78.600	90.300	102.600	1.305
76.200	78.600	90.100	102.600	1.305
76.200	78.600	88.900	102.700	1.306
76.000	78.600	88.100	102.700	1.306
76.000	78.600	87.500	102.700	1.307
76.100	78.600	87.400	102.800	1.307
76.000	78.600	87.900	102.800	1.308
75.800	78.600	88.800	102.900	1.308
75.900	78.600	90.100	102.900	1.309
76.000	78.600	90.400	103.000	1.310
76.100	78.600	90.300	103.000	1.310
76.200	78.600	90.900	103.000	1.311
76.200	78.600	94.400	103.100	1.311
76.100	78.600	101.400	103.200	1.313
76.100	78.600	109.200	103.300	1.314
76.200	78.600	114.000	103.300	1.315
76.200	78.600	116.400	103.400	1.316
76.000	78.600	119.300	103.500	1.317
76.000	78.600	122.700	103.500	1.318
76.000	78.600	125.400	103.600	1.319
76.100	78.600	127.300	103.700	1.319
76.100	78.600	128.100	103.700	1.320
76.000	78.500	129.600	103.800	1.321
76.000	78.500	131.200	103.800	1.322
76.000	78.500	132.100	103.900	1.323
76.100	78.500	133.100	103.900	1.324
76.000	78.500	133.800	104.000	1.324
76.100	78.500	134.100	104.000	1.325
76.200	78.500	134.700	104.000	1.326
76.100	78.500	135.500	104.100	1.326
76.200	78.500	135.700	104.100	1.327
76.200	78.500	136.000	104.200	1.328
76.200	78.400	136.200	104.200	1.328
76.100	78.400	136.200	104.200	1.329
76.100	78.400	135.500	104.300	1.329
76.100	78.400	134.500	104.300	1.330
76.100	78.400	132.700	104.300	1.330
76.000	78.400	129.800	104.300	1.331
76.200	78.400	124.700	104.300	1.331
76.200	78.400	118.800	104.300	1.331
76.200	78.400	115.000	104.300	1.331
76.000	78.400	117.900	104.300	1.331
76.200	78.400	120.100	104.400	1.332
76.100	78.400	119.800	104.400	1.333
76.100	78.400	120.000	104.500	1.333
76.000	78.300	119.200	104.500	1.334
76.200	78.300	117.900	104.500	1.334
76.200	78.300	116.300	104.500	1.334
76.100	78.300	114.600	104.500	1.335
75.900	78.300	113.500	104.600	1.335
75.900	78.300	112.700	104.600	1.335
75.900	78.300	111.300	104.600	1.335
75.800	78.300	110.100	104.600	1.336
75.700	78.300	109.000	104.600	1.336
75.700	78.300	108.000	104.600	1.336
75.700	78.300	106.600	104.600	1.337
75.700	78.300	105.600	104.600	1.337
75.700	78.300	104.200	104.700	1.337
75.600	78.200	103.000	104.700	1.338
75.700	78.200	101.900	104.700	1.338
76.200	78.200	100.500	104.700	1.338
75.400	78.200	99.200	104.700	1.338
75.500	78.200	98.100	104.700	1.338
75.300	78.200	97.200	104.700	1.339
75.100	78.200	96.000	104.700	1.339
74.800	78.200	95.000	104.700	1.339
75.000	78.200	94.100	104.700	1.339
74.200	78.200	93.000	104.700	1.339
74.700	78.200	92.200	104.700	1.340
74.400	78.200	91.600	104.700	1.340
74.300	78.200	91.000	104.700	1.340
74.500	78.200	90.100	104.700	1.340
75.000	78.100	89.200	104.700	1.340
74.900	78.100	88.600	104.700	1.340
75.000	78.100	87.900	104.700	1.340
75.200	78.100	87.600	104.700	1.341
75.500	78.100	87.200	104.700	1.341
76.200	78.100	86.600	104.700	1.341
76.600	78.100	85.900	104.700	1.341
76.900	78.100	85.300	104.700	1.341
77.000	78.100	84.900	104.700	1.341
78.000	78.100	84.600	104.700	1.341
77.800	78.100	83.800	104.700	1.341
77.700	78.100	83.000	104.700	1.341
76.600	78.100	82.900	104.700	1.341
77.200	78.100	82.300	104.700	1.341
78.400	78.100	81.800	104.700	1.341
76.600	78.100	81.800	104.700	1.341
77.500	78.100	82.100	104.700	1.341
77.100	78.100	82.300	104.700	1.341
76.700	78.100	82.100	104.700	1.341
75.900	78.100	81.800	104.700	1.341
75.300	78.000	81.000	104.700	1.342
77.000	78.000	80.200	104.700	1.342
75.600	78.000	79.600	104.700	1.342
75.400	78.000	78.800	104.700	1.342
75.100	78.000	78.400	104.700	1.342
75.300	78.000	78.500	104.700	1.342
75.500	78.000	78.600	104.600	1.342
75.300	77.900	78.400	104.600	1.343
75.000	77.900	77.900	104.600	1.343
74.500	77.900	77.100	104.600	1.343
74.800	77.900	76.500	104.600	1.344
74.800	77.800	75.900	104.600	1.344
74.900	77.800	75.600	104.600	1.344
75.000	77.800	76.100	104.600	1.345
75.100	77.800	77.300	104.600	1.345
75.300	77.700	79.000	104.600	1.345
75.300	77.700	80.200	104.600	1.346
75.300	77.700	80.800	104.600	1.347
76.600	77.700	81.100	104.600	1.347
76.800	77.700	82.300	104.600	1.347
76.200	77.600	86.500	104.700	1.348
77.100	77.600	94.000	104.700	1.349
77.900	77.600	101.400	105.000	1.353
77.700	77.500	105.500	105.000	1.354
77.300	77.500	108.200	105.000	1.354
77.500	77.500	111.500	105.000	1.355
77.900	77.500	114.700	105.000	1.355
77.200	77.500	116.800	105.000	1.356
77.300	77.500	117.300	105.100	1.356
78.100	77.400	118.100	105.100	1.357
77.700	77.400	120.100	105.100	1.357
76.900	77.400	121.800	105.100	1.357
77.600	77.400	123.100	105.100	1.358
76.600	77.400	124.500	105.100	1.358
75.000	77.300	125.600	105.100	1.359
74.500	77.300	126.500	105.100	1.359
74.200	77.300	127.200	105.100	1.360
74.300	77.300	127.800	105.100	1.360
74.400	77.200	128.300	105.100	1.361
74.100	77.200	129.000	105.100	1.361
73.200	77.200	129.600	105.100	1.361
74.800	77.200	129.900	105.100	1.362
74.900	77.100	129.800	105.100	1.362
73.200	77.100	129.100	105.100	1.363
72.100	77.100	127.900	105.100	1.363
72.500	77.100	125.800	105.100	1.364
73.300	77.000	122.400	105.100	1.364
75.600	77.000	117.600	105.000	1.364
72.200	77.000	112.100	105.000	1.365
72.800	76.900	109.400	105.000	1.365
71.800	76.900	112.500	105.000	1.366
72.200	76.900	113.200	105.000	1.366
71.700	76.900	113.300	105.000	1.367
85.400	76.900	113.300	105.000	1.366
103.800	76.900	111.900	105.000	1.365
109.900	77.000	110.000	105.000	1.363
114.700	77.200	108.000	105.000	1.361
116.300	77.300	106.300	105.000	1.359
115.900	77.400	105.100	105.000	1.356
111.700	77.500	104.400	105.000	1.354
106.600	77.600	103.400	104.900	1.353
101.200	77.700	102.200	104.900	1.351
97.900	77.700	100.700	104.900	1.350
95.600	77.800	99.400	104.900	1.349
94.500	77.800	98.500	104.900	1.348
94.800	77.900	97.600	104.900	1.347
93.700	77.900	96.600	104.900	1.346
97.000	78.000	95.600	104.800	1.345
93.000	78.000	94.900	104.800	1.344
95.500	78.100	94.300	104.800	1.342
89.100	78.100	93.400	104.800	1.342
90.000	78.100	92.700	104.800	1.341
89.800	78.200	92.000	104.800	1.340
87.100	78.200	91.100	104.800	1.340
90.200	78.200	90.300	104.700	1.339
88.300	78.300	89.500	104.700	1.338
90.300	78.300	88.700	104.700	1.337
87.600	78.300	88.000	104.700	1.337
87.300	78.400	87.600	104.700	1.336
87.900	78.400	86.900	104.700	1.335
87.900	78.400	86.100	104.700	1.334
87.000	78.500	85.800	104.700	1.334
87.100	78.500	85.400	104.600	1.333
86.700	78.500	85.000	104.600	1.333
85.100	78.500	84.500	104.600	1.332
84.400	78.600	84.000	104.600	1.332
83.300	78.600	83.700	104.600	1.331
83.300	78.600	83.300	104.600	1.331
82.300	78.600	83.100	104.600	1.330
82.200	78.600	83.000	104.500	1.330
82.400	78.600	82.700	104.500	1.330
82.600	78.600	82.500	104.500	1.329
83.000	78.600	82.300	104.500	1.329
84.200	78.700	82.300	104.500	1.328
84.200	78.700	82.100	104.500	1.328
83.400	78.700	82.100	104.500	1.328
82.700	78.700	82.400	104.500	1.327
80.100	78.700	82.900	104.500	1.327
77.400	78.700	83.200	104.400	1.327
78.600	78.700	83.400	104.400	1.327
81.900	78.700	82.900	104.400	1.327
82.800	78.700	82.100	104.400	1.326
82.500	78.700	81.600	104.400	1.326
79.400	78.700	80.500	104.400	1.326
79.900	78.700	79.700	104.400	1.326
81.100	78.700	79.900	104.400	1.325
78.800	78.700	80.600	104.400	1.325
77.700	78.700	80.700	104.400	1.325
76.800	78.700	80.300	104.300	1.325
76.800	78.700	79.800	104.300	1.325
76.200	78.700	79.400	104.300	1.325
75.900	78.700	78.900	104.300	1.325
76.600	78.700	78.400	104.300	1.325
77.700	78.700	78.600	104.300	1.325
78.200	78.700	79.500	104.300	1.325
78.400	78.700	80.400	104.300	1.325
80.000	78.700	80.500	104.300	1.325
85.900	78.700	81.200	104.300	1.324
93.600	78.800	81.400	104.300	1.323
100.500	78.900	81.300	104.300	1.322
104.200	79.000	84.700	104.300	1.321
107.400	79.100	92.200	104.300	1.319
112.000	79.200	100.400	104.300	1.317
115.600	79.300	104.700	104.300	1.315
118.700	79.400	106.500	104.300	1.313
120.200	79.600	109.600	104.300	1.310
122.500	79.700	113.900	104.300	1.308
123.900	79.900	116.700	104.200	1.305
124.800	80.000	118.200	104.200	1.302
126.300	80.200	119.800	104.200	1.299
127.400	80.400	121.900	104.100	1.296
128.400	80.500	124.000	104.100	1.293
129.100	80.700	125.700	104.100	1.290
130.200	80.900	127.200	104.000	1.286
130.700	81.100	128.700	104.000	1.283
131.600	81.200	129.800	104.000	1.280
132.500	81.400	130.900	103.900	1.277
133.300	81.600	131.800	103.900	1.273
133.800	81.800	132.500	103.900	1.270
134.200	82.000	133.300	103.800	1.267
133.900	82.200	134.100	103.800	1.263
133.000	82.300	134.600	103.800	1.260
131.100	82.500	134.900	103.700	1.257
128.000	82.700	134.700	103.700	1.254
123.200	82.800	134.100	103.600	1.251
117.300	83.000	133.000	103.600	1.248
114.800	83.100	131.000	103.600	1.246
114.800	83.200	127.400	103.500	1.244
114.100	83.300	122.100	103.400	1.241
114.700	83.500	116.400	103.400	1.238
116.200	83.600	115.800	103.300	1.236
117.000	83.700	119.200	103.300	1.234
117.100	83.900	119.100	103.300	1.231
116.900	84.000	118.800	103.200	1.229
115.900	84.100	118.500	103.200	1.227
114.400	84.200	117.200	103.200	1.224
112.900	84.400	115.600	103.100	1.222
111.000	84.500	113.500	103.100	1.220
109.400	84.600	111.600	103.000	1.218
107.600	84.700	110.800	103.000	1.216
106.000	84.800	110.000	102.900	1.214
104.700	84.900	108.700	102.900	1.212
103.300	85.000	107.100	102.800	1.210
102.300	85.000	105.700	102.800	1.209
101.200	85.100	104.500	102.700	1.207
100.300	85.200	103.600	102.700	1.205
99.300	85.300	102.600	102.700	1.204
98.400	85.300	101.300	102.600	1.202
97.600	85.400	100.200	102.600	1.201
96.700	85.500	99.200	102.500	1.199
95.900	85.500	98.400	102.500	1.198
95.100	85.600	97.400	102.400	1.197
94.400	85.600	96.500	102.400	1.195
93.600	85.700	95.600	102.300	1.194
93.000	85.800	95.000	102.300	1.193
92.300	85.800	94.400	102.200	1.192
91.700	85.900	93.800	102.200	1.190
91.000	85.900	93.300	102.200	1.189
90.500	86.000	92.600	102.100	1.188
90.000	86.000	92.000	102.100	1.187
89.500	86.000	91.300	102.000	1.186
89.000	86.100	90.500	102.000	1.185
88.500	86.100	90.100	101.900	1.184
88.100	86.200	89.600	101.900	1.183
87.600	86.200	89.100	101.800	1.181
87.200	86.200	88.800	101.800	1.180
86.800	86.300	88.300	101.700	1.180
86.300	86.300	87.600	101.700	1.179
85.900	86.300	87.300	101.700	1.178
85.400	86.400	87.000	101.600	1.177
85.000	86.400	86.700	101.600	1.176
84.600	86.400	86.300	101.500	1.175
84.400	86.400	85.900	101.500	1.174
84.100	86.500	85.600	101.400	1.173
83.800	86.500	85.300	101.400	1.172
83.700	86.500	84.900	101.300	1.171
83.800	86.500	84.600	101.300	1.171
83.700	86.600	84.500	101.200	1.170
83.300	86.600	85.000	101.200	1.169
82.900	86.600	85.600	101.200	1.168
82.000	86.600	85.400	101.100	1.167
81.200	86.600	84.500	101.100	1.167
80.500	86.600	83.500	101.000	1.166
80.100	86.700	82.700	101.000	1.165
79.600	86.700	81.800	101.000	1.165
79.200	86.700	80.900	100.900	1.164
78.800	86.700	80.700	100.900	1.164
78.500	86.700	80.700	100.800	1.163
78.100	86.700	80.900	100.800	1.163
77.700	86.700	80.700	100.800	1.162
77.200	86.700	80.100	100.700	1.162
76.600	86.700	79.400	100.700	1.161
76.300	86.700	78.800	100.700	1.161
76.300	86.700	78.300	100.600	1.160
77.200	86.700	78.200	100.600	1.160
77.400	86.700	79.000	100.600	1.160
77.300	86.700	79.900	100.500	1.159
78.300	86.700	79.700	100.500	1.159
83.100	86.800	80.300	100.500	1.158
90.800	86.800	80.600	100.400	1.157
98.600	86.900	80.200	100.400	1.156
104.200	87.000	82.600	100.400	1.154
108.000	87.100	89.300	100.400	1.153
112.500	87.200	97.400	100.400	1.151
117.100	87.300	103.100	100.400	1.150
120.000	87.500	105.800	100.400	1.148
121.300	87.600	108.800	100.400	1.145
122.200	87.800	112.700	100.400	1.143
123.400	87.900	115.900	100.300	1.141
124.000	88.100	117.800	100.300	1.139
125.200	88.300	118.900	100.300	1.137
126.100	88.400	120.500	100.300	1.134
126.900	88.600	122.300	100.300	1.132
127.600	88.800	123.900	100.300	1.129
128.400	88.900	125.700	100.200	1.127
129.600	89.100	126.800	100.200	1.125
130.600	89.300	127.500	100.200	1.122
131.600	89.500	128.700	100.200	1.120
132.700	89.700	129.800	100.200	1.117
133.500	89.800	131.100	100.200	1.115
134.000	90.000	132.000	100.100	1.112
133.900	90.200	132.800	100.100	1.110
133.100	90.400	133.700	100.100	1.107
131.300	90.600	134.100	100.100	1.105
128.100	90.800	134.100	100.100	1.103
123.300	90.900	133.500	100.100	1.101
117.200	91.100	132.100	100.100	1.099
113.200	91.200	130.000	100.100	1.098
113.400	91.300	126.900	100.100	1.096
112.500	91.400	121.900	100.100	1.095
113.000	91.500	116.200	100.100	1.093
114.600	91.700	113.600	100.100	1.091
116.100	91.800	116.500	100.100	1.090
116.300	91.900	117.500	100.000	1.088
115.900	92.100	117.300	100.000	1.086
115.000	92.200	117.000	100.000	1.085
113.500	92.300	115.800	100.000	1.083
111.900	92.400	114.300	100.000	1.082
110.100	92.600	112.700	100.000	1.080
108.200	92.700	110.700	100.000	1.079
106.400	92.800	109.200	100.000	1.078
104.700	92.900	107.800	99.900	1.076
103.100	92.900	106.600	99.900	1.075
101.900	93.000	105.200	99.900	1.074
100.600	93.100	103.800	99.900	1.073
99.300	93.200	102.400	99.900	1.072
98.300	93.300	101.100	99.900	1.071
97.500	93.300	100.000	99.800	1.070
96.700	93.400	99.000	99.800	1.069
95.800	93.500	97.900	99.800	1.068
95.000	93.500	96.900	99.800	1.067
94.100	93.600	96.100	99.800	1.066
93.400	93.700	95.200	99.800	1.065
92.600	93.700	94.500	99.800	1.064
91.800	93.800	93.600	99.700	1.064
91.100	93.800	92.800	99.700	1.063
90.500	93.900	92.100	99.700	1.062
89.900	93.900	91.400	99.700	1.062
89.300	94.000	90.700	99.700	1.061
88.700	94.000	89.900	99.700	1.060
88.200	94.100	89.300	99.700	1.060
87.700	94.100	88.700	99.700	1.059
87.200	94.100	88.000	99.700	1.059
86.700	94.200	87.700	99.700	1.058
86.300	94.200	87.200	99.700	1.058
85.900	94.300	86.700	99.700	1.057
85.500	94.300	86.200	99.700	1.057
85.100	94.300	85.800	99.700	1.056
84.700	94.400	85.300	99.600	1.056
84.300	94.400	84.900	99.600	1.056
83.900	94.400	84.700	99.600	1.056
83.500	94.400	84.300	99.600	1.055
83.300	94.400	83.900	99.600	1.055
83.000	94.500	83.500	99.600	1.055
82.800	94.500	83.300	99.600	1.055
82.800	94.500	83.000	99.600	1.054
82.700	94.500	82.900	99.600	1.054
82.700	94.500	83.200	99.600	1.054
82.300	94.500	83.500	99.700	1.054
81.800	94.600	83.500	99.700	1.054
81.100	94.600	83.100	99.700	1.054
80.600	94.600	82.400	99.700	1.054
80.300	94.600	81.800	99.700	1.053
79.800	94.600	81.100	99.700	1.053
79.300	94.600	80.100	99.700	1.053
78.800	94.600	79.400	99.700	1.053
78.300	94.600	79.600	99.700	1.053
77.800	94.700	79.900	99.700	1.053
77.800	94.700	79.700	99.700	1.053
77.300	94.700	79.300	99.700	1.053
76.700	94.700	78.700	99.700	1.053
76.100	94.700	77.800	99.700	1.053
75.600	94.700	76.900	99.700	1.053
75.500	94.700	76.500	99.700	1.053
76.000	94.700	76.400	99.700	1.053
77.100	94.700	77.200	99.700	1.053
76.900	94.700	78.200	99.700	1.053
76.500	94.700	79.600	99.700	1.053
78.200	94.700	80.800	99.700	1.053
83.700	94.700	80.500	99.700	1.052
91.600	94.800	80.400	99.700	1.052
99.400	94.900	82.700	99.700	1.051
104.700	95.000	88.600	99.700	1.050
108.700	95.100	96.300	99.800	1.049
111.600	95.200	102.000	99.800	1.048
115.400	95.300	105.400	99.800	1.047
118.000	95.400	108.100	99.800	1.046
119.200	95.600	110.900	99.800	1.044
119.600	95.700	113.700	99.800	1.043
120.300	95.900	115.600	99.800	1.041
120.900	96.000	116.600	99.800	1.040
121.500	96.100	117.200	99.800	1.038
122.100	96.300	118.400	99.800	1.037
122.700	96.400	120.100	99.800	1.035
123.500	96.600	121.400	99.800	1.033
124.300	96.700	122.200	99.800	1.032
125.200	96.900	123.100	99.800	1.030
126.100	97.100	124.000	99.800	1.028
127.000	97.300	124.900	99.800	1.026
127.600	97.400	126.100	99.800	1.024
128.000	97.600	126.700	99.800	1.022
128.000	97.800	127.300	99.800	1.021
127.300	98.000	127.700	99.800	1.019
125.600	98.100	127.900	99.800	1.017
122.600	98.300	127.400	99.800	1.015
118.200	98.400	126.400	99.800	1.014
112.500	98.600	124.200	99.700	1.012
108.800	98.700	120.900	99.700	1.011
109.400	98.800	116.300	99.700	1.009
109.400	98.900	111.400	99.700	1.007
110.100	99.000	108.200	99.600	1.006
111.900	99.200	110.700	99.600	1.005
113.400	99.300	112.300	99.600	1.003
113.900	99.400	112.500	99.600	1.002
113.700	99.600	112.600	99.600	1.001
112.700	99.700	111.800	99.600	0.999
111.200	99.800	110.400	99.600	0.998
109.500	99.800	108.600	99.600	0.998
107.700	99.800	107.000	99.600	0.998
105.900	99.800	105.400	99.600	0.998
104.300	99.700	104.000	99.600	0.998
102.800	99.700	102.800	99.600	0.999
101.300	99.700	101.500	99.600	0.999
100.000	99.600	100.200	99.600	0.999
98.800	99.600	98.800	99.500	0.999
97.800	99.600	97.500	99.500	0.999
96.700	99.600	96.500	99.500	0.999
95.900	99.600	95.600	99.500	0.999
95.000	99.600	94.600	99.500	0.999
94.100	99.600	93.700	99.500	0.998
93.300	99.600	92.800	99.500	0.998
92.600	99.600	91.900	99.500	0.998
91.700	99.600	91.200	99.500	0.998
91.100	99.600	90.500	99.500	0.998
90.400	99.600	89.800	99.400	0.998
89.800	99.600	89.200	99.400	0.998
89.100	99.600	88.500	99.400	0.998
88.700	99.600	88.000	99.400	0.998
88.000	99.600	87.500	99.400	0.998
87.300	99.600	86.800	99.400	0.998
86.800	99.600	86.000	99.400	0.998
86.400	99.600	85.300	99.400	0.998
85.800	99.600	84.800	99.400	0.998
85.300	99.600	84.200	99.400	0.998
84.900	99.600	83.800	99.400	0.998
84.500	99.600	83.300	99.400	0.998
84.200	99.600	83.000	99.400	0.998
83.800	99.600	82.600	99.300	0.998
83.400	99.600	82.200	99.300	0.998
83.200	99.600	82.100	99.300	0.998
82.800	99.600	81.900	99.300	0.998
82.400	99.600	81.500	99.300	0.998
82.000	99.600	81.200	99.300	0.998
81.800	99.600	80.800	99.300	0.998
81.500	99.600	80.700	99.300	0.998
81.200	99.500	80.400	99.300	0.998
81.100	99.500	80.000	99.300	0.998
81.000	99.500	80.100	99.300	0.998
81.100	99.500	80.100	99.300	0.998
81.000	99.500	80.300	99.300	0.998
80.600	99.500	80.400	99.300	0.997
80.100	99.500	80.000	99.300	0.997
79.800	99.500	79.100	99.200	0.997
79.400	99.500	78.800	99.200	0.997
79.100	99.500	78.200	99.200	0.997
78.800	99.500	77.400	99.200	0.997
78.200	99.500	77.300	99.200	0.997
77.600	99.500	77.600	99.200	0.997
77.200	99.500	77.600	99.200	0.997
76.600	99.500	77.400	99.200	0.997
76.000	99.500	76.500	99.200	0.997
75.300	99.500	75.700	99.100	0.997
74.800	99.400	75.200	99.100	0.997
74.400	99.400	74.300	99.100	0.997
74.400	99.400	73.800	99.100	0.997
75.300	99.400	73.600	99.100	0.996
76.100	99.400	74.700	99.100	0.996
75.800	99.400	76.600	99.100	0.996
76.000	99.400	78.600	99.000	0.996
79.000	99.400	79.200	99.000	0.996
85.800	99.400	78.900	99.000	0.996
94.100	99.400	79.400	99.000	0.996
101.300	99.400	82.400	99.000	0.996
106.300	99.400	89.000	99.000	0.996
110.400	99.400	96.800	99.100	0.996
114.000	99.400	102.600	99.100	0.996
117.000	99.400	106.200	99.100	0.996
119.000	99.400	109.400	99.100	0.996
119.800	99.400	112.100	99.100	0.996
120.400	99.400	114.000	99.100	0.997
120.800	99.400	115.200	99.100	0.997
121.800	99.400	115.900	99.100	0.997
122.000	99.400	117.000	99.100	0.997
123.100	99.400	118.500	99.100	0.997
124.100	99.400	120.100	99.000	0.997
125.200	99.400	121.700	99.000	0.997
126.800	99.300	123.100	99.000	0.997
128.000	99.300	124.100	99.000	0.997
129.200	99.300	125.100	99.000	0.997
130.400	99.300	126.100	99.000	0.996
131.400	99.300	127.100	99.000	0.996
132.000	99.300	128.000	98.900	0.996
132.300	99.300	129.000	98.900	0.996
131.700	99.300	129.800	98.900	0.996
130.200	99.300	130.300	98.900	0.996
127.400	99.300	130.400	98.900	0.996
123.400	99.300	129.600	98.900	0.996
117.700	99.200	127.900	98.800	0.996
112.300	99.200	125.100	98.800	0.996
111.800	99.200	121.100	98.800	0.996
111.800	99.200	116.000	98.700	0.995
112.600	99.200	111.200	98.700	0.995
114.300	99.200	110.700	98.700	0.995
115.800	99.200	113.600	98.700	0.995
116.400	99.200	114.300	98.700	0.995
116.800	99.200	114.400	98.700	0.995
116.600	99.200	113.700	98.600	0.994
115.000	99.200	112.300	98.600	0.994
113.000	99.200	110.500	98.600	0.994
110.900	99.200	108.500	98.600	0.994
108.900	99.200	106.300	98.500	0.994
106.800	99.200	104.400	98.500	0.994
105.100	99.200	102.600	98.500	0.993
103.400	99.100	101.100	98.500	0.993
102.000	99.100	99.600	98.400	0.993
100.600	99.100	98.100	98.400	0.993
99.500	99.100	97.000	98.400	0.993
98.500	99.100	95.800	98.400	0.992
97.600	99.100	94.400	98.300	0.992
96.900	99.100	93.300	98.300	0.992
96.000	99.100	92.500	98.300	0.992
95.100	99.100	91.800	98.200	0.991
94.500	99.100	91.200	98.200	0.991
93.600	99.100	90.600	98.200	0.991
92.900	99.100	89.700	98.200	0.991
92.200	99.000	89.100	98.100	0.991
91.500	99.000	88.600	98.100	0.991
90.900	99.000	87.900	98.100	0.990
90.300	99.000	86.900	98.100	0.990
89.600	99.000	86.300	98.000	0.990
88.800	99.000	85.700	98.000	0.990
88.300	99.000	85.000	98.000	0.990
87.800	99.000	84.300	98.000	0.989
87.200	99.000	84.000	97.900	0.989
86.700	99.000	83.700	97.900	0.989
86.500	99.000	83.100	97.900	0.989
86.000	99.000	82.700	97.900	0.989
85.700	99.000	82.200	97.800	0.989
85.200	99.000	81.900	97.800	0.989
84.900	99.000	81.600	97.800	0.988
84.600	98.900	81.300	97.800	0.988
84.200	98.900	81.100	97.800	0.988
83.900	98.900	81.000	97.700	0.988
83.500	98.900	80.500	97.700	0.988
83.300	98.900	80.200	97.700	0.988
83.000	98.900	79.900	97.700	0.987
82.700	98.900	79.700	97.700	0.987
82.400	98.900	79.300	97.600	0.987
82.400	98.900	78.900	97.600	0.987
82.200	98.900	78.900	97.600	0.987
82.000	98.900	79.300	97.600	0.987
81.800	98.900	79.200	97.600	0.987
81.600	98.900	79.000	97.500	0.986
81.300	98.900	78.500	97.500	0.986
81.000	98.900	77.900	97.500	0.986
80.600	98.900	77.600	97.500	0.986
80.000	98.900	77.200	97.500	0.986
79.500	98.900	76.800	97.400	0.985
78.700	98.900	77.000	97.400	0.985
78.200	98.900	77.100	97.400	0.985
77.700	98.900	76.900	97.400	0.985
77.100	98.900	76.400	97.400	0.985
76.500	98.900	75.300	97.400	0.985
75.900	98.900	74.300	97.400	0.985
75.300	98.900	73.600	97.300	0.985
75.100	98.900	73.100	97.300	0.984
75.300	98.900	72.800	97.300	0.984
76.400	98.900	73.400	97.300	0.984
77.900	98.900	75.500	97.300	0.984
78.100	98.900	77.700	97.300	0.984
78.800	98.900	78.800	97.300	0.984
81.100	98.900	79.400	97.300	0.984
87.100	98.800	80.000	97.300	0.984
96.800	98.800	81.400	97.300	0.984
104.700	98.800	84.000	97.300	0.984
111.000	98.800	89.600	97.300	0.984
115.600	98.900	97.800	97.300	0.984
119.000	98.900	104.700	97.300	0.984
121.300	98.900	109.100	97.300	0.984
121.800	98.900	111.700	97.300	0.984
121.900	98.900	113.500	97.300	0.984
121.900	98.900	114.600	97.300	0.984
122.000	98.900	115.600	97.300	0.984
122.700	98.800	116.700	97.300	0.984
123.700	98.800	117.900	97.300	0.984
124.700	98.800	119.400	97.300	0.984
126.000	98.800	121.100	97.200	0.984
127.500	98.800	122.500	97.200	0.984
128.900	98.800	123.600	97.200	0.984
130.600	98.800	124.700	97.200	0.984
132.200	98.800	126.100	97.200	0.984
133.100	98.800	127.200	97.200	0.984
134.200	98.800	128.200	97.200	0.983
134.700	98.800	129.500	97.200	0.983
134.600	98.800	130.700	97.200	0.983
134.100	98.800	131.100	97.200	0.983
132.700	98.800	131.400	97.200	0.983
129.400	98.800	131.200	97.200	0.983
124.600	98.800	130.600	97.100	0.983
118.400	98.900	128.900	97.100	0.983
113.400	98.900	126.000	97.100	0.982
112.000	98.800	121.700	97.100	0.982
114.200	98.900	116.500	97.100	0.982
116.700	98.900	111.500	97.100	0.982
119.000	98.900	111.800	97.100	0.982
121.000	98.900	115.600	97.100	0.981
121.600	98.900	116.500	97.100	0.981
121.200	98.900	116.500	97.100	0.981
119.400	98.900	115.100	97.000	0.981
117.300	99.000	112.900	97.000	0.981
114.900	99.000	110.400	97.000	0.980
112.600	99.000	107.800	97.000	0.980
110.600	99.000	105.200	97.000	0.980
108.700	99.000	103.000	97.000	0.980
107.100	99.000	101.500	96.900	0.979
105.900	99.000	100.100	96.900	0.979
104.800	99.000	98.500	96.900	0.979
103.700	99.000	97.200	96.900	0.978
102.900	99.000	96.100	96.900	0.978
102.000	99.100	94.900	96.800	0.978
101.000	99.100	94.100	96.800	0.977
100.100	99.100	93.400	96.800	0.977
99.100	99.100	92.600	96.800	0.977
98.200	99.100	91.900	96.800	0.976
97.400	99.100	91.300	96.800	0.976
96.500	99.100	90.700	96.700	0.976
95.700	99.100	90.100	96.700	0.976
95.000	99.100	89.500	96.700	0.975
94.400	99.200	88.800	96.700	0.975
93.800	99.200	87.900	96.700	0.975
93.100	99.200	87.200	96.700	0.975
92.400	99.200	86.700	96.700	0.975
91.700	99.200	86.000	96.600	0.974
91.200	99.200	85.400	96.600	0.974
90.500	99.200	84.900	96.600	0.974
89.900	99.200	84.600	96.600	0.974
89.400	99.200	84.100	96.600	0.973
89.100	99.200	83.800	96.600	0.973
88.800	99.200	83.300	96.600	0.973
88.300	99.300	82.800	96.600	0.973
87.700	99.300	82.600	96.600	0.973
87.200	99.300	82.300	96.500	0.972
86.900	99.300	81.900	96.500	0.972
86.400	99.300	81.600	96.500	0.972
85.800	99.300	81.300	96.500	0.972
85.300	99.300	80.900	96.500	0.972
85.100	99.300	80.700	96.500	0.972
84.800	99.300	80.600	96.500	0.971
84.900	99.300	80.400	96.500	0.971
84.800	99.300	80.600	96.500	0.971
84.600	99.300	80.600	96.500	0.971
84.500	99.300	80.400	96.400	0.971
84.200	99.400	80.000	96.400	0.971
83.900	99.400	79.600	96.400	0.970
83.300	99.400	79.300	96.400	0.970
82.800	99.400	79.100	96.400	0.970
82.100	99.400	79.100	96.400	0.970
81.600	99.400	78.800	96.400	0.970
81.100	99.400	78.300	96.400	0.970
80.500	99.400	77.900	96.400	0.970
79.900	99.400	77.200	96.400	0.969
79.300	99.400	76.400	96.400	0.969
78.500	99.400	76.000	96.400	0.969
78.400	99.400	75.400	96.300	0.969
79.000	99.400	75.600	96.300	0.969
80.100	99.500	76.100	96.300	0.969
81.400	99.500	77.600	96.300	0.968
81.100	99.500	79.300	96.300	0.968
81.800	99.500	81.200	96.400	0.968
85.900	99.500	82.000	96.400	0.968
93.800	99.600	82.400	96.400	0.968
101.900	99.700	84.000	96.400	0.967
107.300	99.800	87.800	96.400	0.967
111.700	99.800	93.900	96.500	0.966
115.800	99.900	100.900	96.500	0.966
119.400	99.900	106.200	96.600	0.967
121.900	100.000	109.800	96.600	0.967
123.100	100.000	112.900	96.700	0.967
123.600	100.000	115.200	96.700	0.967
124.200	100.000	116.700	96.700	0.967
124.800	100.100	117.900	96.700	0.967
125.500	100.100	118.600	96.800	0.967
126.300	100.100	119.800	96.800	0.967
127.300	100.100	121.300	96.800	0.967
128.400	100.200	122.800	96.800	0.967
129.500	100.200	124.200	96.800	0.967
130.600	100.200	125.500	96.800	0.966
131.800	100.200	126.200	96.900	0.966
132.900	100.300	127.000	96.900	0.966
133.700	100.300	128.200	96.900	0.966
134.200	100.300	129.100	96.900	0.966
134.300	100.300	130.200	96.900	0.966
133.600	100.400	130.900	96.900	0.966
131.700	100.400	131.600	97.000	0.966
128.300	100.400	131.600	97.000	0.966
123.400	100.400	130.700	97.000	0.966
117.700	100.300	128.900	97.000	0.967
115.800	100.300	126.100	97.000	0.967
115.900	100.300	121.800	97.000	0.967
115.700	100.300	116.800	96.900	0.966
116.900	100.300	112.500	96.900	0.966
118.600	100.400	113.500	96.900	0.966
120.100	100.400	115.200	96.900	0.965
120.500	100.400	115.100	96.900	0.965
119.800	100.500	114.900	97.000	0.965
118.800	100.500	114.200	97.000	0.965
117.300	100.500	112.400	97.000	0.965
115.500	100.500	110.300	97.000	0.965
113.600	100.500	108.300	96.900	0.965
111.600	100.500	106.300	96.900	0.964
109.800	100.500	104.500	96.900	0.964
108.100	100.500	102.800	96.900	0.964
106.600	100.500	101.100	96.900	0.964
105.200	100.500	99.600	96.900	0.964
104.000	100.500	98.000	96.900	0.964
103.000	100.500	96.700	96.800	0.963
102.100	100.500	95.600	96.800	0.963
101.100	100.500	94.800	96.800	0.963
100.200	100.500	93.800	96.800	0.963
99.400	100.600	93.100	96.800	0.963
98.600	100.600	92.300	96.800	0.962
97.700	100.600	91.700	96.800	0.962
97.000	100.600	91.000	96.800	0.962
96.200	100.600	90.400	96.800	0.962
95.500	100.600	89.900	96.700	0.962
94.900	100.600	89.300	96.700	0.962
94.100	100.600	88.800	96.700	0.961
93.500	100.600	88.200	96.700	0.961
93.000	100.600	87.800	96.700	0.961
92.500	100.700	87.200	96.700	0.961
92.000	100.700	86.800	96.700	0.961
91.600	100.700	86.200	96.700	0.961
91.100	100.700	85.700	96.700	0.960
90.800	100.700	85.300	96.700	0.960
90.400	100.700	84.800	96.700	0.960
90.000	100.700	84.300	96.700	0.960
89.600	100.700	84.200	96.700	0.960
89.200	100.800	84.100	96.700	0.960
88.800	100.800	83.700	96.700	0.960
88.400	100.800	83.200	96.700	0.960
88.200	100.800	83.000	96.700	0.959
87.800	100.800	82.900	96.700	0.959
87.500	100.800	82.700	96.700	0.959
87.400	100.800	82.500	96.700	0.959
85.800	100.900	82.300	96.700	0.959
85.900	100.900	81.900	96.700	0.959
87.000	100.900	81.600	96.700	0.959
85.000	100.900	81.200	96.700	0.959
84.900	100.900	80.700	96.700	0.959
86.200	100.900	80.700	96.700	0.958
84.300	100.900	80.800	96.700	0.958
84.000	100.900	80.800	96.700	0.958
84.200	101.000	80.900	96.700	0.958
84.100	101.000	80.800	96.700	0.958
83.700	101.000	80.400	96.700	0.958
84.000	101.000	79.800	96.700	0.958
84.400	101.000	79.400	96.700	0.958
82.300	101.000	79.000	96.700	0.958
83.200	101.000	79.100	96.700	0.958
84.100	101.100	79.500	96.800	0.957
81.100	101.100	79.700	96.800	0.957
82.300	101.100	79.600	96.800	0.957
81.900	101.100	79.300	96.800	0.957
80.500	101.100	78.900	96.800	0.957
80.700	101.100	78.300	96.800	0.957
80.200	101.100	77.800	96.800	0.957
79.800	101.200	77.300	96.800	0.957
80.900	101.200	77.600	96.800	0.957
82.300	101.200	78.800	96.800	0.957
82.600	101.200	79.700	96.900	0.957
82.600	101.300	80.900	96.900	0.957
87.400	101.300	82.700	96.900	0.956
95.300	101.300	83.800	96.900	0.956
103.900	101.400	85.000	96.900	0.956
110.000	101.500	88.900	96.900	0.956
114.300	101.500	95.600	97.000	0.956
118.400	101.500	102.500	97.000	0.956
122.700	101.600	107.500	97.100	0.956
126.300	101.600	110.900	97.100	0.955
127.900	101.700	114.300	97.100	0.955
129.100	101.700	117.600	97.200	0.955
129.900	101.700	120.600	97.200	0.955
130.700	101.800	122.000	97.200	0.955
131.300	101.800	122.500	97.200	0.955
132.300	101.800	124.000	97.300	0.955
133.000	101.900	125.900	97.300	0.955
133.700	101.900	127.500	97.300	0.955
134.800	101.900	128.900	97.300	0.955
136.200	102.000	130.000	97.400	0.955
137.700	102.000	131.100	97.400	0.955
139.100	102.000	132.400	97.400	0.955
140.300	102.100	133.700	97.500	0.955
141.000	102.100	135.000	97.500	0.955
141.400	102.100	136.100	97.500	0.955
140.900	102.200	136.800	97.500	0.955
139.400	102.200	137.300	97.600	0.955
136.800	102.200	137.700	97.600	0.955
132.700	102.200	137.200	97.600	0.955
127.300	102.200	136.000	97.600	0.955
121.500	102.200	133.900	97.700	0.955
121.000	102.200	130.400	97.700	0.955
121.000	102.300	126.000	97.700	0.955
121.100	102.300	120.800	97.700	0.955
122.300	102.300	117.700	97.700	0.954
123.900	102.400	119.700	97.700	0.954
124.700	102.400	120.700	97.700	0.954
124.400	102.400	120.400	97.800	0.954
123.600	102.400	119.500	97.800	0.954
122.100	102.500	118.100	97.800	0.954
120.200	102.500	116.100	97.800	0.954
118.200	102.500	113.700	97.800	0.954
116.000	102.500	111.300	97.800	0.954
113.700	102.500	109.100	97.800	0.954
111.900	102.500	107.000	97.800	0.954
110.300	102.500	105.100	97.800	0.954
109.000	102.500	103.300	97.800	0.954
107.700	102.600	101.500	97.800	0.954
106.500	102.600	100.000	97.800	0.954
105.500	102.600	98.700	97.800	0.953
104.500	102.600	97.700	97.800	0.953
103.600	102.600	97.100	97.800	0.953
102.600	102.600	96.200	97.800	0.953
101.700	102.700	95.200	97.800	0.953
100.800	102.700	94.500	97.800	0.953
100.000	102.700	93.800	97.800	0.953
99.100	102.700	93.100	97.800	0.953
98.400	102.700	92.600	97.900	0.953
97.600	102.700	91.900	97.900	0.953
96.700	102.700	91.200	97.900	0.953
96.000	102.800	90.400	97.900	0.952
95.300	102.800	89.600	97.900	0.952
94.900	102.800	88.900	97.900	0.952
93.600	102.800	88.300	97.900	0.952
92.500	102.800	87.500	97.900	0.952
92.000	102.800	86.800	97.900	0.952
91.600	102.800	86.200	97.900	0.952
91.300	102.900	85.800	97.900	0.952
91.000	102.900	85.500	97.900	0.952
90.700	102.900	85.000	97.900	0.952
90.300	102.900	84.500	97.900	0.952
89.900	102.900	84.000	97.900	0.952
89.400	102.900	83.800	97.900	0.952
88.900	102.900	83.300	98.000	0.952
88.500	103.000	82.700	98.000	0.952
87.900	103.000	82.400	98.000	0.951
87.400	103.000	81.800	98.000	0.951
86.800	103.000	81.700	98.000	0.951
86.300	103.000	81.300	98.000	0.951
85.900	103.000	80.800	98.000	0.951
85.400	103.000	80.400	98.000	0.951
85.000	103.000	80.100	98.000	0.951
84.600	103.000	79.700	98.000	0.951
84.500	103.000	79.500	98.000	0.951
84.400	103.000	79.400	98.000	0.951
84.200	103.100	79.500	98.000	0.951
83.700	103.100	79.700	98.000	0.951
83.200	103.100	79.300	98.000	0.951
82.600	103.100	78.700	98.000	0.951
82.200	103.100	78.300	98.000	0.951
81.900	103.100	77.900	98.000	0.951
81.600	103.100	77.200	98.000	0.951
81.200	103.100	76.800	98.000	0.951
80.900	103.100	77.000	98.000	0.950
80.400	103.100	77.400	98.000	0.950
80.000	103.100	77.000	98.000	0.950
79.600	103.100	76.500	98.000	0.950
79.200	103.100	76.200	98.000	0.950
78.600	103.200	75.700	98.000	0.950
78.100	103.200	75.200	98.000	0.950
77.900	103.200	74.600	98.000	0.950
78.800	103.200	74.600	98.000	0.950
79.100	103.200	75.600	98.000	0.950
79.100	103.200	77.100	98.000	0.950
79.200	103.200	78.400	98.000	0.950
82.000	103.200	79.500	98.000	0.950
88.600	103.200	80.500	98.000	0.950
97.400	103.200	81.700	98.000	0.950
104.800	103.200	84.000	98.000	0.950
109.900	103.200	88.800	98.000	0.950
114.300	103.200	95.500	98.000	0.950
118.800	103.300	102.000	98.000	0.949
122.700	103.400	106.400	98.100	0.949
124.500	103.400	110.000	98.100	0.949
125.900	103.400	113.400	98.100	0.949
126.300	103.400	116.100	98.200	0.949
126.500	103.400	118.000	98.200	0.949
126.900	103.500	118.900	98.200	0.949
127.700	103.500	119.800	98.200	0.949
128.400	103.500	121.000	98.200	0.949
129.100	103.500	122.300	98.200	0.949
130.300	103.500	123.800	98.300	0.949
131.700	103.600	125.200	98.300	0.949
133.500	103.600	126.600	98.300	0.949
134.900	103.600	127.800	98.300	0.949
136.500	103.600	129.000	98.300	0.949
137.600	103.700	130.500	98.400	0.949
138.400	103.700	131.700	98.400	0.949
138.700	103.700	132.900	98.400	0.949
138.200	103.700	133.700	98.400	0.949
136.400	103.700	134.300	98.400	0.949
133.100	103.700	134.400	98.400	0.949
128.400	103.700	134.100	98.500	0.950
122.500	103.700	132.700	98.500	0.950
118.000	103.600	130.100	98.500	0.950
118.400	103.600	126.200	98.400	0.950
117.500	103.600	121.100	98.400	0.950
118.400	103.600	115.900	98.400	0.950
120.200	103.600	114.000	98.400	0.949
122.200	103.700	116.100	98.400	0.949
122.800	103.700	116.900	98.400	0.949
122.200	103.700	117.100	98.400	0.949
122.200	103.700	116.300	98.400	0.949
120.600	103.700	114.400	98.400	0.949
118.100	103.700	112.200	98.400	0.949
115.700	103.700	109.900	98.400	0.949
113.100	103.700	107.300	98.300	0.949
110.900	103.600	104.400	98.300	0.949
108.600	103.600	101.800	98.300	0.949
106.700	103.600	99.700	98.300	0.948
105.300	103.600	97.900	98.300	0.948
104.300	103.600	96.300	98.200	0.948
103.200	103.600	94.800	98.200	0.948
102.400	103.600	93.600	98.200	0.948
101.600	103.600	92.600	98.200	0.948
100.900	103.600	91.800	98.200	0.948
100.000	103.600	91.300	98.200	0.948
99.000	103.600	90.700	98.200	0.948
98.200	103.500	89.900	98.100	0.948
97.300	103.500	89.100	98.100	0.948
96.500	103.500	88.500	98.100	0.948
95.700	103.500	87.900	98.100	0.948
95.100	103.500	87.400	98.100	0.948
94.500	103.500	86.900	98.100	0.948
93.800	103.500	86.300	98.100	0.947
93.200	103.500	85.700	98.100	0.947
92.700	103.500	85.100	98.100	0.947
92.200	103.500	84.500	98.100	0.947
91.700	103.500	84.000	98.000	0.947
91.000	103.500	83.600	98.000	0.947
90.600	103.500	83.300	98.000	0.947
90.200	103.500	82.900	98.000	0.947
89.800	103.500	82.300	98.000	0.947
89.300	103.500	81.800	98.000	0.947
88.900	103.500	81.700	98.000	0.947
88.500	103.500	81.400	98.000	0.947
88.000	103.500	81.100	98.000	0.947
87.600	103.500	80.600	98.000	0.947
87.200	103.500	80.200	98.000	0.947
86.700	103.500	80.100	98.000	0.947
86.300	103.500	80.100	98.000	0.947
85.900	103.500	79.700	98.000	0.947
85.600	103.500	79.300	98.000	0.946
85.300	103.500	79.000	97.900	0.946
85.000	103.500	78.600	97.900	0.946
84.800	103.500	78.200	97.900	0.946
84.700	103.500	78.000	97.900	0.946
84.500	103.500	78.000	97.900	0.946
84.200	103.500	78.300	97.900	0.946
84.100	103.500	78.400	97.900	0.946
83.700	103.500	78.200	97.900	0.946
83.500	103.500	77.800	97.900	0.946
83.200	103.500	77.400	97.900	0.946
82.800	103.500	77.000	97.900	0.946
82.400	103.500	76.800	97.900	0.946
82.000	103.500	76.800	97.900	0.946
81.400	103.500	76.800	97.900	0.946
80.900	103.500	76.900	97.900	0.945
80.400	103.500	76.400	97.900	0.945
79.800	103.500	75.900	97.900	0.945
79.300	103.500	75.400	97.900	0.945
78.900	103.500	74.800	97.900	0.945
78.700	103.500	74.200	97.900	0.945
79.200	103.500	73.900	97.800	0.945
80.000	103.500	74.200	97.800	0.945
80.400	103.500	75.200	97.800	0.945
80.200	103.500	77.000	97.800	0.945
81.000	103.400	79.600	97.800	0.945
85.600	103.400	81.400	97.800	0.946
92.400	103.300	82.000	97.800	0.946
100.200	103.300	82.900	97.700	0.946
106.500	103.300	86.100	97.700	0.946
111.100	103.200	91.100	97.600	0.946
115.700	103.200	97.600	97.600	0.945
119.600	103.200	103.500	97.600	0.945
122.300	103.200	107.800	97.500	0.945
124.000	103.200	111.200	97.500	0.945
124.600	103.200	113.600	97.500	0.945
124.700	103.200	115.500	97.500	0.945
124.900	103.200	116.800	97.500	0.945
125.300	103.200	117.700	97.500	0.944
125.800	103.200	118.400	97.500	0.944
126.500	103.200	119.700	97.400	0.944
127.500	103.200	121.000	97.400	0.944
128.800	103.200	122.500	97.400	0.944
130.300	103.100	123.600	97.400	0.944
131.800	103.100	125.000	97.400	0.944
133.100	103.100	126.300	97.400	0.944
134.200	103.100	127.400	97.400	0.944
134.900	103.100	128.400	97.400	0.944
134.800	103.200	129.400	97.400	0.944
134.000	103.200	130.400	97.400	0.944
132.500	103.200	130.900	97.400	0.943
129.500	103.200	131.100	97.400	0.943
124.500	103.300	130.700	97.400	0.943
118.900	103.300	129.400	97.400	0.943
116.300	103.300	126.600	97.400	0.943
116.800	103.300	122.800	97.500	0.944
116.700	103.300	117.900	97.500	0.944
117.700	103.300	113.200	97.500	0.944
119.400	103.300	112.300	97.500	0.944
120.800	103.300	114.000	97.500	0.944
121.100	103.300	114.300	97.500	0.944
120.600	103.300	114.400	97.500	0.944
119.300	103.300	113.300	97.500	0.944
117.600	103.300	111.700	97.500	0.944
115.800	103.300	109.500	97.500	0.944
113.500	103.300	107.100	97.500	0.944
111.500	103.300	105.100	97.500	0.944
109.400	103.400	102.900	97.500	0.944
107.700	103.400	100.700	97.500	0.944
106.200	103.400	99.000	97.500	0.943
104.800	103.400	97.400	97.500	0.943
103.400	103.400	96.100	97.500	0.943
102.600	103.400	94.700	97.500	0.943
101.600	103.400	93.500	97.500	0.943
100.800	103.400	92.500	97.500	0.943
100.000	103.400	91.700	97.500	0.943
99.200	103.400	90.900	97.500	0.943
98.500	103.400	90.500	97.500	0.943
97.800	103.400	89.700	97.500	0.943
97.100	103.400	88.900	97.500	0.943
96.300	103.400	88.200	97.500	0.943
95.600	103.400	87.700	97.500	0.943
95.000	103.400	87.400	97.500	0.943
94.400	103.400	86.800	97.500	0.943
93.800	103.400	86.200	97.500	0.943
93.200	103.400	85.700	97.500	0.942
92.700	103.400	85.200	97.500	0.942
92.200	103.500	84.700	97.500	0.942
91.800	103.500	84.200	97.500	0.942
91.200	103.500	83.800	97.500	0.942
90.800	103.500	83.500	97.500	0.942
90.500	103.500	82.900	97.500	0.942
90.100	103.500	82.400	97.500	0.942
89.700	103.500	82.000	97.500	0.942
89.400	103.500	81.900	97.500	0.942
89.000	103.500	81.800	97.500	0.942
88.700	103.500	81.300	97.500	0.942
88.300	103.500	81.200	97.400	0.942
87.900	103.500	81.100	97.400	0.942
87.500	103.500	80.700	97.400	0.942
87.500	103.500	80.600	97.400	0.941
87.300	103.500	80.300	97.400	0.941
86.100	103.500	79.900	97.400	0.941
85.800	103.500	79.600	97.400	0.941
85.800	103.500	79.500	97.400	0.941
85.700	103.500	79.500	97.400	0.941
85.700	103.500	79.700	97.400	0.941
85.500	103.500	79.900	97.400	0.941
85.100	103.500	79.900	97.400	0.941
84.700	103.500	79.600	97.400	0.941
84.400	103.500	79.000	97.400	0.941
84.200	103.500	78.500	97.400	0.941
84.000	103.500	78.200	97.400	0.941
83.900	103.500	77.900	97.400	0.941
83.600	103.500	77.900	97.400	0.941
83.300	103.500	78.300	97.400	0.941
82.900	103.500	78.700	97.400	0.940
82.600	103.500	78.600	97.400	0.940
82.100	103.500	78.200	97.400	0.940
81.700	103.500	77.600	97.400	0.940
81.400	103.600	77.000	97.400	0.940
81.200	103.600	76.500	97.400	0.940
81.700	103.600	76.400	97.400	0.940
82.500	103.600	77.200	97.400	0.940
82.400	103.600	78.600	97.300	0.940
82.100	103.600	79.700	97.300	0.940
84.000	103.500	81.600	97.300	0.940
90.200	103.500	83.700	97.300	0.940
98.800	103.500	84.400	97.300	0.940
106.300	103.500	85.600	97.300	0.940
110.700	103.500	90.000	97.300	0.940
114.600	103.500	96.100	97.300	0.940
119.100	103.500	102.100	97.300	0.940
123.000	103.500	106.600	97.300	0.940
125.500	103.400	109.900	97.200	0.940
127.500	103.400	113.600	97.200	0.940
128.900	103.400	116.900	97.200	0.940
130.000	103.400	119.600	97.200	0.940
131.100	103.400	121.300	97.200	0.940
131.800	103.400	122.200	97.200	0.940
132.800	103.400	123.700	97.200	0.940
133.100	103.400	125.500	97.200	0.940
133.700	103.400	127.300	97.200	0.940
134.800	103.400	128.600	97.200	0.940
135.900	103.400	129.300	97.200	0.940
137.100	103.400	130.100	97.200	0.940
138.300	103.400	131.400	97.200	0.940
139.200	103.400	132.600	97.100	0.940
139.800	103.400	133.800	97.100	0.940
139.800	103.400	134.700	97.100	0.940
138.900	103.400	135.400	97.100	0.939
136.900	103.400	136.000	97.100	0.939
133.600	103.400	136.100	97.100	0.939
128.900	103.400	135.600	97.100	0.939
123.400	103.400	134.400	97.100	0.939
121.000	103.400	131.800	97.100	0.939
121.200	103.400	128.000	97.100	0.939
121.400	103.400	123.500	97.100	0.939
122.300	103.400	118.600	97.100	0.939
123.700	103.400	117.400	97.100	0.939
124.600	103.400	118.900	97.100	0.939
124.400	103.400	118.800	97.100	0.939
123.400	103.400	118.300	97.100	0.939
121.800	103.400	117.200	97.100	0.939
120.000	103.400	115.200	97.100	0.939
117.900	103.400	112.700	97.100	0.939
115.700	103.400	110.400	97.100	0.939
113.600	103.400	107.900	97.100	0.939
111.800	103.400	105.500	97.100	0.939
110.000	103.400	103.600	97.100	0.939
108.500	103.400	101.900	97.100	0.939
107.100	103.400	99.900	97.100	0.939
106.000	103.400	98.300	97.100	0.939
104.800	103.400	96.800	97.100	0.939
104.000	103.400	95.600	97.100	0.939
103.100	103.400	94.600	97.100	0.939
102.200	103.400	93.600	97.000	0.939
101.300	103.400	92.800	97.000	0.939
100.500	103.400	91.900	97.000	0.939
99.600	103.400	91.200	97.000	0.939
98.700	103.400	90.600	97.000	0.938
98.000	103.400	89.900	97.000	0.938
97.200	103.400	89.200	97.000	0.938
96.400	103.400	88.700	97.000	0.938
95.700	103.400	88.100	97.000	0.938
95.100	103.400	87.400	97.000	0.938
94.600	103.400	86.900	97.000	0.938
94.100	103.400	86.200	97.000	0.938
93.600	103.400	85.700	97.000	0.938
93.000	103.400	85.400	97.000	0.938
92.500	103.400	84.800	96.900	0.938
92.100	103.400	84.300	96.900	0.938
91.700	103.400	84.100	96.900	0.938
91.100	103.400	83.600	96.900	0.938
90.800	103.400	83.100	96.900	0.937
90.300	103.400	83.000	96.900	0.937
89.800	103.400	82.800	96.900	0.937
89.300	103.400	82.400	96.900	0.937
88.900	103.400	82.000	96.900	0.937
88.500	103.400	81.600	96.900	0.937
87.900	103.400	81.200	96.900	0.937
87.400	103.400	80.800	96.900	0.937
87.000	103.400	80.500	96.900	0.937
86.600	103.400	80.000	96.900	0.937
86.200	103.400	79.700	96.900	0.937
86.000	103.400	79.600	96.900	0.937
85.900	103.400	79.300	96.900	0.937
86.000	103.400	79.100	96.900	0.937
85.800	103.400	79.300	96.900	0.937
85.300	103.400	79.400	96.900	0.937
84.900	103.400	79.300	96.900	0.937
84.300	103.400	79.100	96.900	0.937
83.900	103.400	78.700	96.900	0.937
83.600	103.400	78.200	96.900	0.937
83.400	103.500	77.700	96.900	0.937
83.000	103.500	77.100	96.900	0.937
82.600	103.500	77.000	96.900	0.937
82.100	103.500	77.400	96.900	0.937
81.500	103.500	77.700	96.900	0.936
80.800	103.500	77.300	96.900	0.936
80.100	103.500	76.800	96.900	0.936
79.600	103.500	76.000	96.900	0.936
79.100	103.500	75.400	96.900	0.936
79.100	103.500	74.900	96.900	0.936
80.200	103.500	75.000	96.900	0.936
80.700	103.500	75.600	96.900	0.936
80.300	103.500	77.200	96.900	0.936
81.200	103.500	79.800	96.900	0.936
86.200	103.500	82.400	96.900	0.936
94.400	103.600	83.200	96.900	0.936
102.800	103.600	83.600	96.900	0.936
109.000	103.700	86.300	97.000	0.935
113.800	103.700	91.400	97.000	0.935
118.100	103.700	97.900	97.000	0.936
121.700	103.700	103.900	97.000	0.936
124.200	103.700	108.100	97.100	0.936
126.000	103.800	111.500	97.100	0.936
126.700	103.800	114.700	97.100	0.936
127.900	103.800	117.400	97.100	0.936
128.700	103.800	119.100	97.100	0.936
129.600	103.800	120.100	97.100	0.936
130.500	103.800	121.600	97.100	0.936
131.300	103.800	122.900	97.100	0.936
132.800	103.800	124.600	97.200	0.936
134.100	103.800	126.100	97.200	0.936
135.500	103.900	127.300	97.200	0.936
137.200	103.900	128.700	97.200	0.936
138.700	103.900	130.200	97.200	0.936
140.200	103.900	131.600	97.200	0.936
141.300	103.900	132.700	97.200	0.936
141.800	103.900	133.900	97.200	0.936
141.700	104.000	135.100	97.300	0.936
140.600	104.000	136.100	97.300	0.936
138.600	104.000	136.900	97.300	0.936
135.300	104.000	137.000	97.300	0.936
130.500	104.000	136.500	97.300	0.936
124.800	103.900	135.300	97.300	0.936
120.500	103.900	133.100	97.300	0.936
121.100	103.900	129.600	97.300	0.936
121.000	104.000	125.000	97.300	0.936
121.500	104.000	119.400	97.300	0.936
123.100	104.000	115.700	97.300	0.936
124.500	104.000	117.200	97.300	0.936
124.500	104.000	118.500	97.300	0.936
124.700	104.000	118.400	97.300	0.936
124.000	104.000	117.100	97.300	0.936
122.400	104.000	115.000	97.300	0.935
120.400	104.000	112.500	97.300	0.935
117.900	104.000	109.800	97.300	0.935
115.600	104.000	107.000	97.300	0.935
113.000	104.000	104.100	97.300	0.935
111.300	104.000	101.700	97.300	0.935
109.500	104.000	99.600	97.300	0.935
107.800	104.000	97.900	97.200	0.935
106.400	104.000	96.200	97.200	0.935
105.200	104.000	94.900	97.200	0.935
104.000	104.000	93.700	97.200	0.935
103.100	104.000	92.600	97.200	0.935
102.200	104.000	91.600	97.200	0.935
101.400	104.000	90.800	97.200	0.935
100.600	104.000	90.300	97.200	0.934
100.000	104.000	89.800	97.200	0.934
99.100	104.000	89.300	97.200	0.934
98.400	104.000	88.700	97.200	0.934
97.500	104.000	88.100	97.200	0.934
96.800	104.100	87.600	97.200	0.934
96.100	104.100	87.100	97.200	0.934
95.500	104.100	86.700	97.200	0.934
95.000	104.100	86.200	97.200	0.934
94.400	104.100	85.600	97.200	0.934
93.900	104.100	85.300	97.200	0.934
93.200	104.100	84.800	97.200	0.934
92.900	104.100	84.300	97.200	0.934
92.500	104.100	84.000	97.200	0.934
92.100	104.100	83.600	97.200	0.934
91.900	104.100	83.200	97.200	0.934
91.900	104.100	83.000	97.200	0.934
90.700	104.100	82.700	97.200	0.934
90.000	104.100	82.400	97.200	0.934
89.800	104.100	82.200	97.200	0.934
89.500	104.100	81.900	97.200	0.934
89.000	104.100	81.700	97.200	0.934
88.600	104.100	81.500	97.200	0.934
88.400	104.100	81.100	97.200	0.934
88.000	104.100	80.800	97.200	0.934
87.600	104.100	80.500	97.200	0.934
87.500	104.200	80.600	97.200	0.934
87.400	104.200	80.800	97.300	0.934
87.200	104.200	80.800	97.300	0.934
86.700	104.200	80.700	97.300	0.934
86.200	104.200	80.400	97.300	0.934
85.800	104.200	79.900	97.300	0.934
85.500	104.200	79.600	97.300	0.934
85.300	104.200	79.100	97.300	0.934
85.000	104.200	78.800	97.300	0.934
84.800	104.200	79.000	97.300	0.934
84.300	104.200	79.300	97.300	0.934
84.000	104.200	79.500	97.300	0.934
83.400	104.200	79.300	97.300	0.934
83.000	104.200	78.700	97.300	0.934
82.200	104.200	78.300	97.300	0.934
81.700	104.200	77.500	97.300	0.934
81.300	104.200	77.100	97.300	0.934
81.900	104.200	77.400	97.300	0.934
82.900	104.200	78.500	97.300	0.934
83.200	104.300	80.300	97.400	0.934
83.100	104.300	83.000	97.400	0.934
85.500	104.300	85.000	97.400	0.934
92.300	104.300	85.400	97.500	0.934
100.900	104.400	86.600	97.500	0.934
108.100	104.500	90.500	97.500	0.934
112.700	104.600	96.400	97.600	0.933
116.700	104.700	102.500	97.700	0.933
121.100	104.800	107.000	97.800	0.933
125.300	104.900	110.300	97.800	0.933
128.400	104.900	114.000	97.900	0.933
129.400	105.000	117.300	98.000	0.934
131.000	105.000	120.300	98.100	0.934
131.900	105.100	122.200	98.200	0.934
132.800	105.100	123.500	98.200	0.934
133.900	105.200	125.200	98.300	0.934
135.100	105.200	127.000	98.300	0.934
136.500	105.200	128.400	98.300	0.935
137.600	105.300	129.900	98.400	0.935
139.200	105.300	131.300	98.400	0.935
141.000	105.400	132.800	98.500	0.935
142.500	105.400	134.400	98.500	0.935
144.100	105.500	135.900	98.600	0.935
145.400	105.500	137.300	98.600	0.935
146.100	105.600	138.600	98.700	0.935
146.300	105.600	139.800	98.700	0.935
145.900	105.700	140.700	98.800	0.935
144.600	105.700	141.300	98.800	0.935
142.400	105.700	141.200	98.800	0.935
139.000	105.700	140.700	98.900	0.935
134.100	105.700	139.500	98.900	0.935
128.100	105.700	137.300	98.900	0.936
124.000	105.700	134.000	98.900	0.936
124.300	105.700	128.900	98.900	0.936
124.100	105.700	123.100	98.900	0.936
124.600	105.700	119.300	98.900	0.935
125.500	105.800	120.100	98.900	0.935
126.400	105.800	120.400	98.900	0.935
126.100	105.800	119.800	98.900	0.935
124.800	105.900	118.700	98.900	0.935
123.100	105.900	116.700	98.900	0.935
121.100	105.900	113.900	98.900	0.935
118.800	105.900	111.100	98.900	0.935
116.700	105.800	108.300	98.900	0.935
114.700	105.800	106.000	98.900	0.934
112.500	105.800	104.000	98.900	0.934
110.700	105.800	102.100	98.900	0.934
109.100	105.800	100.200	98.800	0.934
107.600	105.800	98.600	98.800	0.934
106.500	105.800	96.900	98.800	0.934
105.400	105.800	95.600	98.800	0.934
104.400	105.800	94.600	98.800	0.934
103.600	105.800	93.600	98.800	0.934
102.700	105.800	92.900	98.800	0.934
101.900	105.800	92.300	98.800	0.934
101.000	105.800	91.700	98.800	0.934
100.200	105.800	91.200	98.800	0.934
99.500	105.800	90.600	98.800	0.934
98.800	105.800	89.900	98.800	0.934
98.000	105.800	89.500	98.800	0.934
97.300	105.800	89.000	98.800	0.934
96.500	105.800	88.300	98.800	0.934
95.900	105.800	87.600	98.800	0.934
95.200	105.800	87.200	98.800	0.934
94.500	105.800	86.800	98.800	0.934
94.000	105.800	86.200	98.800	0.934
93.500	105.800	85.700	98.800	0.934
93.000	105.800	85.300	98.800	0.934
92.600	105.800	84.900	98.800	0.934
92.100	105.800	84.500	98.800	0.934
91.600	105.800	84.100	98.800	0.934
91.100	105.800	83.700	98.800	0.934
90.600	105.800	83.400	98.800	0.934
90.100	105.800	83.100	98.800	0.934
89.500	105.800	82.800	98.800	0.934
89.100	105.800	82.400	98.800	0.934
88.600	105.800	81.900	98.800	0.934
88.200	105.800	81.600	98.800	0.934
87.900	105.800	81.400	98.800	0.934
87.500	105.800	80.800	98.800	0.934
87.200	105.800	80.900	98.800	0.934
87.100	105.800	80.900	98.800	0.934
86.900	105.800	80.800	98.800	0.934
86.500	105.800	80.500	98.800	0.934
86.000	105.800	80.300	98.800	0.934
85.200	105.800	79.700	98.800	0.934
84.600	105.800	79.200	98.800	0.934
84.200	105.800	78.700	98.800	0.934
83.700	105.800	78.300	98.800	0.934
83.300	105.800	77.800	98.800	0.934
83.000	105.800	78.000	98.800	0.934
82.700	105.800	78.300	98.800	0.934
82.200	105.800	78.100	98.800	0.934
81.700	105.800	78.100	98.800	0.934
80.900	105.700	77.700	98.800	0.934
80.200	105.700	76.900	98.800	0.934
79.400	105.700	76.100	98.800	0.934
79.300	105.700	75.400	98.800	0.934
80.200	105.700	76.100	98.700	0.934
80.600	105.700	77.800	98.700	0.934
80.600	105.700	79.800	98.700	0.934
81.700	105.700	81.800	98.800	0.934
86.800	105.700	83.000	98.800	0.934
95.200	105.800	83.700	98.800	0.934
103.800	105.800	85.700	98.800	0.934
109.400	105.900	90.800	98.900	0.934
114.000	106.000	97.400	98.900	0.933
119.100	106.200	103.500	99.100	0.934
124.000	106.300	108.000	99.200	0.934
126.800	106.300	111.600	99.300	0.934
128.300	106.300	115.200	99.300	0.934
129.800	106.300	118.000	99.300	0.934
131.500	106.400	120.400	99.400	0.934
132.800	106.400	122.000	99.400	0.934
134.300	106.400	123.600	99.400	0.934
135.500	106.400	125.600	99.400	0.934
136.700	106.400	127.800	99.500	0.934
138.100	106.500	129.600	99.500	0.935
139.700	106.500	131.100	99.500	0.935
141.400	106.500	132.600	99.500	0.935
143.200	106.500	134.100	99.600	0.934
145.200	106.600	135.700	99.600	0.934
146.800	106.600	137.300	99.600	0.934
148.200	106.600	138.900	99.600	0.934
149.000	106.700	140.300	99.700	0.934
149.300	106.700	141.600	99.700	0.934
149.000	106.700	142.500	99.700	0.934
147.800	106.800	143.000	99.800	0.934
146.000	106.800	143.400	99.800	0.934
142.600	106.800	143.100	99.800	0.934
137.900	106.800	142.200	99.800	0.934
131.600	106.800	140.400	99.800	0.934
125.900	106.800	137.000	99.800	0.935
125.400	106.900	132.200	99.900	0.934
124.600	106.900	126.400	99.800	0.934
124.600	106.900	120.900	99.800	0.934
125.400	106.900	120.000	99.800	0.934
126.200	106.900	121.000	99.900	0.934
126.100	106.900	120.700	99.900	0.934
125.600	106.900	119.700	99.900	0.934
123.800	106.900	117.600	99.900	0.934
121.900	106.900	115.100	99.900	0.934
119.600	106.900	112.500	99.800	0.934
117.100	106.900	109.500	99.800	0.934
114.500	106.900	106.600	99.800	0.934
112.300	106.900	103.900	99.800	0.934
110.300	106.900	101.200	99.800	0.934
108.600	106.900	98.900	99.800	0.933
107.000	106.900	97.000	99.800	0.933
105.600	106.900	95.300	99.700	0.933
104.600	106.900	93.900	99.700	0.933
103.600	106.900	92.700	99.700	0.933
102.800	106.900	91.700	99.700	0.933
102.000	106.900	90.900	99.700	0.933
101.100	106.900	90.100	99.700	0.933
100.200	106.900	89.500	99.700	0.933
99.400	106.900	88.700	99.700	0.933
98.600	106.900	88.200	99.700	0.933
97.700	106.800	87.800	99.600	0.933
96.900	106.800	87.200	99.600	0.933
96.100	106.800	86.700	99.600	0.932
95.300	106.800	86.100	99.600	0.932
94.700	106.800	85.500	99.600	0.932
94.100	106.800	85.000	99.600	0.932
93.500	106.800	84.600	99.600	0.932
92.800	106.800	84.100	99.600	0.932
92.300	106.800	83.700	99.600	0.932
91.800	106.800	83.300	99.600	0.932
91.400	106.800	82.700	99.600	0.932
90.900	106.800	82.200	99.600	0.932
90.400	106.800	81.800	99.500	0.932
89.900	106.800	81.300	99.500	0.932
89.400	106.800	81.100	99.500	0.932
89.000	106.800	81.000	99.500	0.932
88.500	106.800	80.600	99.500	0.932
88.000	106.800	80.300	99.500	0.932
87.600	106.800	79.900	99.500	0.932
87.300	106.800	79.700	99.500	0.932
87.000	106.800	79.500	99.500	0.932
87.000	106.800	79.400	99.500	0.932
87.000	106.800	79.600	99.500	0.932
86.900	106.800	79.900	99.500	0.932
86.600	106.800	80.000	99.500	0.932
86.000	106.800	79.700	99.500	0.932
85.400	106.800	79.200	99.500	0.932
85.100	106.800	78.900	99.500	0.932
84.900	106.800	78.400	99.500	0.932
84.600	106.800	77.800	99.500	0.932
84.200	106.800	77.800	99.500	0.932
83.700	106.800	78.100	99.500	0.932
83.300	106.800	78.400	99.500	0.932
82.800	106.800	78.200	99.500	0.932
82.100	106.700	78.000	99.500	0.932
81.500	106.700	77.400	99.500	0.932
80.800	106.700	76.800	99.500	0.932
80.300	106.700	76.400	99.500	0.932
80.500	106.700	75.800	99.500	0.932
81.800	106.700	76.400	99.500	0.932
82.100	106.700	78.300	99.500	0.932
81.700	106.700	80.900	99.500	0.932
83.300	106.800	83.300	99.500	0.932
89.200	106.800	84.400	99.500	0.932
97.800	106.800	85.100	99.600	0.932
106.000	106.900	87.400	99.600	0.932
111.200	107.000	92.500	99.700	0.931
115.700	107.100	99.100	99.700	0.931
120.100	107.300	104.600	100.000	0.931
124.500	107.300	108.700	100.000	0.932
127.300	107.400	112.500	100.100	0.932
129.300	107.400	116.200	100.100	0.932
130.900	107.400	119.400	100.100	0.932
132.200	107.400	121.500	100.200	0.932
133.500	107.500	123.000	100.200	0.932
134.600	107.500	124.700	100.200	0.932
135.700	107.500	126.700	100.200	0.932
137.000	107.500	128.800	100.300	0.932
138.200	107.600	130.200	100.300	0.933
139.400	107.600	131.700	100.300	0.933
141.400	107.600	133.000	100.400	0.933
143.200	107.700	134.300	100.400	0.933
144.500	107.700	136.000	100.400	0.933
145.900	107.700	137.400	100.400	0.933
146.900	107.700	138.700	100.500	0.933
147.300	107.800	139.900	100.500	0.933
147.100	107.800	141.000	100.500	0.933
146.100	107.800	141.700	100.600	0.933
144.300	107.800	141.900	100.600	0.933
141.400	107.800	142.000	100.600	0.933
137.100	107.800	141.300	100.600	0.933
131.300	107.800	139.500	100.600	0.934
125.200	107.800	136.900	100.600	0.934
124.400	107.800	132.800	100.600	0.934
124.000	107.800	127.500	100.600	0.933
124.100	107.800	121.700	100.600	0.933
125.000	107.800	119.300	100.600	0.933
125.800	107.800	120.600	100.600	0.933
126.000	107.800	120.100	100.600	0.933
125.300	107.800	119.200	100.600	0.933
123.700	107.800	117.500	100.600	0.933
121.700	107.800	115.200	100.600	0.933
119.500	107.800	112.300	100.500	0.933
117.200	107.800	109.400	100.500	0.933
115.000	107.800	106.900	100.500	0.933
112.900	107.800	104.400	100.500	0.933
111.100	107.700	102.500	100.500	0.933
109.200	107.700	100.800	100.500	0.933
107.800	107.700	98.900	100.500	0.933
106.500	107.700	97.100	100.400	0.933
105.500	107.700	95.800	100.400	0.933
104.500	107.700	94.800	100.400	0.933
103.600	107.700	94.000	100.400	0.933
102.600	107.700	93.100	100.400	0.933
101.900	107.700	92.300	100.400	0.933
101.000	107.700	91.800	100.400	0.933
100.100	107.700	91.300	100.400	0.933
99.100	107.700	90.700	100.400	0.933
98.400	107.700	90.000	100.400	0.933
97.600	107.700	89.300	100.400	0.933
96.900	107.600	88.700	100.400	0.933
96.200	107.600	88.000	100.400	0.933
95.500	107.600	87.500	100.400	0.933
95.000	107.600	87.100	100.400	0.933
94.300	107.600	86.400	100.400	0.933
93.900	107.600	86.000	100.400	0.933
93.400	107.600	85.600	100.400	0.933
92.900	107.600	85.200	100.400	0.933
92.300	107.600	84.800	100.400	0.933
91.800	107.600	84.300	100.400	0.933
91.400	107.600	83.800	100.400	0.933
90.800	107.600	83.400	100.400	0.933
90.300	107.600	83.300	100.400	0.933
89.800	107.600	82.900	100.400	0.933
89.200	107.600	82.500	100.400	0.933
88.800	107.600	82.200	100.400	0.934
88.300	107.600	81.900	100.400	0.934
87.900	107.600	81.700	100.400	0.934
87.600	107.600	81.400	100.400	0.934
87.200	107.600	81.300	100.400	0.934
86.900	107.600	80.900	100.400	0.934
86.800	107.600	80.600	100.400	0.934
86.700	107.600	80.600	100.400	0.934
86.600	107.500	80.800	100.400	0.934
86.000	107.500	80.900	100.400	0.934
85.400	107.500	80.500	100.400	0.934
84.700	107.500	79.900	100.400	0.934
84.300	107.500	79.500	100.400	0.934
84.000	107.500	79.100	100.400	0.934
83.600	107.500	78.700	100.400	0.934
83.300	107.500	78.400	100.400	0.934
83.100	107.500	78.500	100.400	0.934
82.800	107.500	78.900	100.400	0.934
82.400	107.500	79.200	100.400	0.934
81.900	107.500	79.100	100.400	0.934
81.200	107.500	78.600	100.400	0.934
80.500	107.500	77.800	100.400	0.934
80.100	107.500	77.000	100.400	0.934
80.500	107.500	76.700	100.400	0.934
81.400	107.500	77.800	100.400	0.934
81.700	107.500	79.900	100.400	0.934
82.500	107.500	82.100	100.400	0.935
86.300	107.500	83.900	100.400	0.935
94.200	107.500	85.100	100.400	0.934
102.800	107.600	85.900	100.400	0.934
108.800	107.600	89.200	100.500	0.934
112.800	107.700	95.600	100.500	0.933
117.600	107.600	102.300	100.500	0.934
122.700	107.600	106.800	100.500	0.934
127.000	107.600	110.000	100.500	0.934
129.000	107.600	113.900	100.500	0.934
131.100	107.600	117.800	100.500	0.934
132.600	107.600	120.900	100.500	0.934
134.300	107.600	122.700	100.500	0.934
135.800	107.600	124.200	100.500	0.934
137.600	107.600	126.200	100.500	0.934
138.900	107.600	128.600	100.500	0.934
139.800	107.600	130.900	100.500	0.933
141.100	107.600	132.700	100.500	0.933
142.700	107.600	134.300	100.500	0.933
144.300	107.600	135.400	100.500	0.933
146.100	107.600	136.800	100.500	0.933
147.600	107.600	138.300	100.500	0.933
148.900	107.700	139.800	100.500	0.933
150.000	107.700	141.200	100.500	0.933
150.600	107.700	142.600	100.500	0.933
150.500	107.700	143.800	100.500	0.933
149.700	107.700	144.600	100.500	0.933
148.000	107.800	145.100	100.500	0.933
145.000	107.800	145.100	100.500	0.933
140.600	107.800	144.500	100.600	0.933
134.600	107.900	142.900	100.600	0.933
128.100	107.900	140.300	100.600	0.933
125.500	107.900	136.400	100.700	0.933
124.500	107.900	130.800	100.700	0.934
123.900	107.900	124.400	100.700	0.934
124.500	107.900	120.300	100.700	0.934
124.900	107.900	121.000	100.700	0.934
125.100	107.900	121.100	100.700	0.934
124.700	107.900	120.100	100.800	0.934
123.200	107.900	118.300	100.800	0.934
121.300	107.900	115.900	100.800	0.934
119.200	107.900	113.000	100.800	0.934
116.800	107.900	110.100	100.800	0.934
114.300	107.900	107.200	100.800	0.934
112.300	107.900	104.400	100.800	0.934
110.200	107.900	101.900	100.800	0.934
108.300	107.900	99.600	100.800	0.934
106.500	107.900	97.400	100.800	0.934
105.000	107.900	95.500	100.800	0.934
103.700	107.900	93.900	100.800	0.934
102.700	107.900	92.400	100.800	0.934
101.800	107.900	91.300	100.800	0.934
101.000	107.900	90.500	100.800	0.934
100.200	107.900	89.800	100.800	0.934
99.400	107.900	89.100	100.800	0.934
98.400	107.900	88.100	100.800	0.934
97.500	107.900	87.500	100.800	0.934
96.700	107.900	87.000	100.800	0.934
95.900	107.900	86.500	100.800	0.934
95.100	107.900	85.900	100.800	0.934
94.300	107.900	85.300	100.800	0.934
93.600	107.900	84.900	100.800	0.934
92.900	107.900	84.400	100.800	0.934
92.300	107.900	83.800	100.700	0.934
91.500	107.900	83.100	100.700	0.934
91.100	107.900	82.700	100.700	0.934
90.500	107.800	82.300	100.700	0.934
90.000	107.800	81.700	100.700	0.934
89.400	107.800	81.300	100.700	0.934
88.900	107.800	80.700	100.700	0.934
88.500	107.800	80.300	100.700	0.934
88.100	107.800	80.100	100.700	0.934
87.400	107.800	79.700	100.700	0.934
87.000	107.800	79.200	100.600	0.934
86.500	107.800	79.000	100.600	0.934
86.000	107.800	78.800	100.600	0.934
85.700	107.800	78.400	100.600	0.934
85.200	107.800	78.100	100.600	0.934
85.000	107.800	77.700	100.600	0.934
84.800	107.800	77.400	100.600	0.933
84.800	107.700	77.400	100.600	0.933
84.700	107.700	77.800	100.600	0.933
84.500	107.700	78.000	100.600	0.933
83.900	107.700	77.600	100.500	0.933
83.300	107.700	77.300	100.500	0.933
82.900	107.700	76.900	100.500	0.933
82.600	107.700	76.500	100.500	0.933
82.200	107.700	75.800	100.500	0.933
81.800	107.700	75.500	100.500	0.933
81.300	107.700	75.600	100.500	0.933
80.800	107.700	75.900	100.500	0.933
80.200	107.700	76.000	100.500	0.933
79.600	107.700	75.600	100.500	0.933
78.900	107.700	75.200	100.500	0.933
78.000	107.700	74.700	100.500	0.933
77.500	107.700	73.800	100.500	0.933
77.400	107.700	73.100	100.500	0.933
78.600	107.700	73.100	100.400	0.933
79.100	107.700	74.300	100.400	0.933
78.700	107.600	77.000	100.400	0.933
79.400	107.600	79.900	100.400	0.933
84.500	107.600	81.200	100.400	0.933
93.000	107.500	81.800	100.400	0.933
101.600	107.500	83.300	100.400	0.933
108.000	107.500	87.100	100.300	0.933
112.800	107.500	93.300	100.300	0.933
116.300	107.500	100.000	100.300	0.933
120.700	107.400	105.200	100.200	0.933
124.300	107.400	109.200	100.200	0.933
125.900	107.400	112.500	100.200	0.933
126.800	107.400	115.300	100.200	0.933
127.900	107.400	117.800	100.200	0.933
129.100	107.400	119.300	100.100	0.933
130.300	107.300	120.700	100.100	0.933
131.100	107.300	122.400	100.100	0.933
132.200	107.300	124.000	100.100	0.933
133.500	107.300	125.600	100.100	0.933
134.700	107.300	127.400	100.100	0.933
136.300	107.200	128.700	100.000	0.933
138.000	107.200	130.100	100.000	0.933
139.400	107.200	131.500	100.000	0.933
140.600	107.200	132.800	100.000	0.933
141.700	107.100	134.100	100.000	0.933
142.400	107.100	135.500	99.900	0.933
142.500	107.100	136.500	99.900	0.933
141.600	107.100	137.300	99.900	0.933
140.000	107.000	138.000	99.900	0.933
137.200	107.000	138.200	99.900	0.933
132.900	107.000	137.500	99.900	0.933
127.300	107.000	136.200	99.800	0.933
121.300	107.000	133.500	99.800	0.933
119.700	107.000	129.700	99.800	0.933
119.600	106.900	124.800	99.800	0.933
119.500	106.900	118.900	99.800	0.933
120.300	106.900	115.000	99.800	0.933
121.400	106.900	115.600	99.800	0.933
122.000	106.900	116.100	99.800	0.933
121.600	106.900	115.600	99.700	0.933
120.300	106.900	114.200	99.700	0.933
118.600	106.800	112.100	99.700	0.933
116.700	106.800	109.700	99.700	0.933
114.600	106.800	107.100	99.700	0.933
112.400	106.800	104.700	99.700	0.933
110.500	106.800	102.400	99.700	0.933
108.600	106.800	100.300	99.700	0.933
107.000	106.800	98.500	99.700	0.933
105.300	106.800	96.800	99.700	0.933
104.100	106.800	95.300	99.700	0.933
102.800	106.800	94.200	99.700	0.934
101.800	106.800	93.200	99.700	0.934
100.800	106.800	92.100	99.700	0.934
100.100	106.800	91.200	99.700	0.934
99.200	106.800	90.500	99.700	0.934
98.300	106.800	89.800	99.700	0.934
97.500	106.700	89.100	99.700	0.934
96.800	106.700	88.600	99.700	0.934
96.000	106.700	87.900	99.700	0.934
95.200	106.700	87.400	99.700	0.934
94.500	106.700	86.900	99.700	0.934
93.800	106.700	86.400	99.700	0.934
93.100	106.700	85.600	99.700	0.934
92.400	106.700	85.100	99.700	0.934
91.800	106.700	84.600	99.700	0.934
91.300	106.700	84.300	99.700	0.934
90.800	106.700	83.900	99.700	0.934
90.300	106.700	83.400	99.700	0.935
89.900	106.700	83.000	99.700	0.935
89.400	106.700	82.500	99.700	0.935
89.000	106.700	82.100	99.700	0.935
88.600	106.700	81.900	99.700	0.935
88.000	106.700	81.600	99.700	0.935
87.700	106.700	81.400	99.700	0.935
87.300	106.700	81.200	99.700	0.935
86.800	106.700	80.700	99.700	0.935
86.500	106.600	80.400	99.700	0.935
86.100	106.600	80.400	99.700	0.935
85.900	106.600	80.300	99.700	0.935
85.500	106.600	79.700	99.700	0.935
85.300	106.600	79.300	99.700	0.935
85.300	106.600	79.200	99.700	0.935
85.300	106.600	79.700	99.700	0.935
85.100	106.600	80.000	99.700	0.935
84.600	106.600	79.900	99.700	0.935
84.100	106.600	79.600	99.700	0.935
83.400	106.600	79.300	99.700	0.935
83.000	106.600	78.900	99.700	0.936
82.800	106.600	78.300	99.700	0.936
82.400	106.600	77.600	99.700	0.936
82.000	106.600	77.300	99.700	0.936
81.700	106.600	77.600	99.700	0.936
81.400	106.600	78.100	99.700	0.936
81.000	106.600	78.400	99.700	0.936
80.500	106.600	78.100	99.700	0.936
79.800	106.600	77.600	99.700	0.936
79.200	106.600	76.900	99.700	0.936
78.800	106.600	76.300	99.700	0.936
79.300	106.600	75.900	99.700	0.936
80.200	106.500	76.700	99.700	0.936
80.400	106.500	78.800	99.700	0.936
81.200	106.500	81.200	99.700	0.936
85.800	106.500	82.800	99.700	0.936
93.900	106.400	83.900	99.700	0.936
102.200	106.400	84.600	99.600	0.937
107.600	106.400	87.400	99.600	0.936
111.200	106.300	93.900	99.600	0.936
115.400	106.300	100.700	99.500	0.936
120.600	106.300	105.000	99.500	0.936
124.400	106.300	108.200	99.500	0.936
127.200	106.300	112.400	99.500	0.936
129.200	106.200	116.400	99.400	0.936
131.200	106.200	119.400	99.400	0.936
132.600	106.200	121.400	99.400	0.936
133.600	106.200	123.300	99.400	0.936
135.200	106.200	125.200	99.400	0.936
136.700	106.200	127.300	99.400	0.936
138.000	106.200	129.400	99.400	0.936
138.700	106.200	131.200	99.400	0.936
140.500	106.200	132.600	99.400	0.936
141.500	106.200	134.300	99.400	0.936
143.200	106.200	135.800	99.400	0.936
144.700	106.200	137.000	99.400	0.936
145.600	106.200	138.300	99.300	0.936
146.500	106.200	139.600	99.300	0.936
146.600	106.200	140.900	99.300	0.936
146.100	106.200	141.700	99.300	0.936
144.700	106.200	142.300	99.300	0.936
142.400	106.200	142.600	99.300	0.936
138.900	106.200	142.400	99.400	0.935
134.100	106.300	141.400	99.400	0.935
128.400	106.300	139.800	99.400	0.935
123.000	106.300	137.000	99.400	0.936
122.800	106.300	133.000	99.500	0.936
121.900	106.200	127.700	99.500	0.936
121.700	106.200	121.700	99.500	0.937
122.400	106.200	118.900	99.500	0.937
123.100	106.200	119.900	99.500	0.937
122.700	106.200	119.700	99.500	0.937
121.700	106.200	118.800	99.500	0.937
120.000	106.200	116.800	99.500	0.937
118.100	106.200	114.500	99.500	0.937
116.200	106.200	111.900	99.600	0.937
114.000	106.200	108.900	99.600	0.937
112.000	106.200	106.600	99.600	0.938
110.200	106.200	104.500	99.600	0.938
108.600	106.200	102.500	99.600	0.938
106.900	106.200	100.600	99.600	0.938
105.400	106.200	98.800	99.600	0.938
104.100	106.200	97.300	99.600	0.938
103.000	106.200	96.000	99.700	0.938
101.800	106.200	94.800	99.700	0.938
100.800	106.200	93.600	99.700	0.938
99.900	106.200	92.600	99.700	0.938
98.900	106.200	92.100	99.700	0.938
98.100	106.200	91.400	99.700	0.938
97.200	106.200	90.500	99.700	0.938
96.300	106.200	89.800	99.700	0.939
95.600	106.200	89.100	99.700	0.939
94.900	106.200	88.500	99.700	0.939
94.100	106.200	88.000	99.700	0.939
93.500	106.200	87.400	99.700	0.939
92.700	106.200	86.800	99.700	0.939
92.000	106.200	86.300	99.700	0.939
91.400	106.200	85.900	99.700	0.939
90.900	106.200	85.200	99.700	0.939
90.300	106.200	84.400	99.700	0.939
89.700	106.100	83.900	99.700	0.939
89.200	106.100	83.800	99.700	0.939
88.800	106.100	83.400	99.700	0.939
88.300	106.100	82.700	99.700	0.939
87.800	106.100	82.300	99.700	0.939
87.400	106.100	82.000	99.700	0.939
86.900	106.100	81.700	99.700	0.939
86.400	106.100	81.500	99.700	0.939
86.000	106.100	81.200	99.700	0.939
85.500	106.100	80.900	99.700	0.940
85.100	106.100	80.700	99.700	0.940
84.900	106.100	80.300	99.700	0.940
84.500	106.100	79.900	99.700	0.940
84.200	106.100	79.600	99.700	0.940
84.100	106.000	79.300	99.700	0.940
84.000	106.000	79.300	99.700	0.940
83.800	106.000	79.700	99.600	0.940
83.500	106.000	80.000	99.600	0.940
82.900	106.000	79.600	99.600	0.940
82.200	106.000	79.000	99.600	0.940
81.600	106.000	78.400	99.600	0.940
81.300	106.000	78.000	99.600	0.940
80.800	106.000	77.300	99.600	0.940
80.400	106.000	76.800	99.600	0.940
80.200	106.000	77.000	99.600	0.940
79.900	106.000	77.100	99.600	0.940
79.600	106.000	77.400	99.600	0.940
79.200	106.000	77.600	99.600	0.940
78.600	106.000	77.300	99.600	0.940
78.100	106.000	76.600	99.600	0.940
77.700	105.900	75.800	99.600	0.940
77.700	105.900	75.300	99.600	0.940
78.500	105.900	75.700	99.600	0.940
79.000	105.900	77.100	99.500	0.940
79.800	105.800	79.200	99.500	0.940
83.300	105.800	81.100	99.500	0.941
90.600	105.700	82.600	99.500	0.941
99.000	105.700	83.400	99.500	0.941
105.000	105.600	85.000	99.400	0.941
108.800	105.600	90.600	99.300	0.941
113.000	105.500	98.100	99.300	0.941
117.400	105.500	103.100	99.300	0.941
122.900	105.500	106.000	99.200	0.941
125.500	105.400	109.800	99.200	0.941
127.300	105.400	114.200	99.200	0.941
129.000	105.400	118.000	99.100	0.941
130.700	105.400	120.200	99.100	0.941
131.800	105.300	121.600	99.100	0.941
133.100	105.300	123.500	99.100	0.941
134.300	105.300	125.800	99.000	0.941
135.100	105.300	127.700	99.000	0.941
135.900	105.200	129.300	99.000	0.941
136.900	105.200	131.100	99.000	0.941
138.300	105.200	132.400	99.000	0.941
139.800	105.200	133.400	98.900	0.941
141.400	105.100	134.600	98.900	0.941
142.400	105.100	135.800	98.900	0.941
143.300	105.100	137.300	98.900	0.941
143.600	105.100	138.600	98.900	0.941
143.100	105.000	139.500	98.800	0.941
141.800	105.000	140.400	98.800	0.941
139.700	105.000	140.500	98.800	0.941
136.400	105.000	140.200	98.800	0.941
131.700	105.000	139.500	98.800	0.941
126.000	105.000	137.900	98.800	0.941
120.200	105.000	135.300	98.800	0.941
119.500	105.000	131.400	98.800	0.941
118.900	105.000	126.100	98.900	0.942
118.800	105.000	120.200	98.900	0.942
119.600	105.000	116.700	98.800	0.942
120.200	104.900	117.600	98.800	0.942
120.100	104.900	117.500	98.800	0.942
119.300	104.900	116.600	98.800	0.942
117.900	104.900	115.300	98.800	0.942
116.000	104.900	113.100	98.800	0.942
113.900	104.900	110.600	98.900	0.942
111.900	104.900	108.000	98.900	0.942
109.600	104.900	105.500	98.900	0.943
107.700	104.900	103.100	98.900	0.943
106.000	104.900	101.000	98.900	0.943
104.200	104.900	99.100	98.900	0.943
102.800	104.900	97.000	98.900	0.943
101.400	104.900	95.300	98.900	0.943
100.100	104.900	93.800	98.900	0.943
99.000	104.900	92.600	99.000	0.943
97.900	104.900	91.500	99.000	0.944
96.800	104.900	90.200	99.000	0.944
95.900	104.900	89.400	99.000	0.944
95.100	104.900	88.600	99.000	0.944
94.300	104.800	87.900	99.000	0.944
93.500	104.800	87.100	99.000	0.944
92.700	104.800	86.500	99.000	0.944
92.000	104.800	85.600	99.000	0.944
91.100	104.800	84.900	99.000	0.944
90.400	104.800	84.600	99.000	0.944
89.700	104.800	84.100	99.000	0.945
89.100	104.800	83.400	99.000	0.945
88.500	104.800	82.800	99.000	0.945
87.800	104.800	82.000	99.000	0.945
87.300	104.800	81.600	99.000	0.945
86.700	104.800	81.100	99.000	0.945
86.300	104.700	80.500	99.000	0.945
85.800	104.700	80.000	99.000	0.945
85.300	104.700	79.500	99.000	0.945
84.800	104.700	79.200	99.000	0.945
84.300	104.700	78.800	99.000	0.945
83.800	104.700	78.400	99.000	0.945
83.200	104.700	78.000	99.000	0.945
82.800	104.700	77.600	99.000	0.945
82.300	104.700	77.100	99.000	0.945
81.800	104.700	77.000	99.000	0.946
81.500	104.600	76.400	99.000	0.946
81.300	104.600	76.200	99.000	0.946
81.100	104.600	76.200	98.900	0.946
81.000	104.600	75.900	98.900	0.946
81.000	104.600	75.700	98.900	0.946
80.900	104.600	75.900	98.900	0.946
80.700	104.600	76.100	98.900	0.946
80.100	104.600	76.300	98.900	0.946
79.500	104.600	75.900	98.900	0.946
78.800	104.600	75.300	98.900	0.946
78.400	104.500	74.700	98.900	0.946
78.100	104.500	74.200	98.900	0.946
77.600	104.500	73.500	98.900	0.946
77.100	104.500	73.300	98.900	0.946
76.600	104.500	73.600	98.900	0.946
76.100	104.500	73.700	98.900	0.946
75.800	104.500	73.600	98.900	0.946
75.200	104.500	73.200	98.900	0.946
74.800	104.500	72.700	98.900	0.946
74.200	104.500	72.300	98.900	0.947
73.900	104.400	71.800	98.900	0.947
74.600	104.400	71.200	98.800	0.946
75.500	104.400	71.800	98.800	0.946
75.500	104.300	73.300	98.800	0.947
76.100	104.300	75.200	98.700	0.947
80.700	104.200	77.900	98.700	0.948
89.300	104.100	79.100	98.700	0.948
98.000	104.000	79.600	98.600	0.948
103.600	104.000	82.200	98.500	0.948
108.000	103.900	88.900	98.500	0.947
112.700	103.900	96.100	98.400	0.947
117.100	104.100	101.100	98.500	0.947
119.100	104.000	104.300	98.500	0.947
120.600	104.000	108.100	98.500	0.947
121.700	104.000	112.000	98.500	0.947
122.400	104.000	114.400	98.400	0.947
122.500	104.000	115.500	98.400	0.947
123.500	103.900	116.400	98.400	0.947
124.600	103.900	117.700	98.400	0.947
125.300	103.900	119.300	98.400	0.947
126.200	103.900	120.900	98.400	0.947
127.200	103.800	122.100	98.300	0.947
128.200	103.800	123.400	98.300	0.947
129.400	103.800	124.600	98.300	0.947
130.200	103.800	125.800	98.300	0.947
131.000	103.700	126.800	98.300	0.947
131.400	103.700	127.700	98.300	0.948
131.500	103.700	128.400	98.200	0.948
130.900	103.600	129.100	98.200	0.948
129.600	103.600	129.700	98.200	0.948
127.100	103.500	129.900	98.200	0.948
123.300	103.500	129.600	98.100	0.948
118.200	103.400	128.600	98.100	0.948
112.000	103.400	126.600	98.100	0.948
109.100	103.300	123.500	98.000	0.949
110.400	103.300	118.800	98.000	0.948
110.400	103.300	113.200	98.000	0.948
111.200	103.300	107.700	97.900	0.948
112.700	103.200	107.400	97.900	0.948
113.600	103.200	109.500	97.900	0.948
113.800	103.200	109.500	97.800	0.948
113.000	103.200	108.900	97.800	0.948
111.500	103.100	107.600	97.800	0.948
109.900	103.100	105.800	97.800	0.948
108.200	103.100	103.500	97.800	0.949
106.400	103.000	101.600	97.700	0.949
104.600	103.000	99.800	97.700	0.949
103.000	103.000	98.000	97.700	0.949
101.400	103.000	96.400	97.700	0.949
99.900	102.900	95.000	97.700	0.949
98.600	102.900	93.500	97.700	0.949
97.400	102.900	92.400	97.700	0.949
96.400	102.900	91.300	97.700	0.949
95.400	102.900	90.000	97.600	0.949
94.600	102.800	89.100	97.600	0.949
93.700	102.800	88.400	97.600	0.950
92.800	102.800	87.800	97.600	0.950
92.100	102.800	87.000	97.600	0.950
91.400	102.700	86.500	97.600	0.950
90.600	102.700	86.000	97.600	0.950
89.900	102.700	85.300	97.600	0.950
89.300	102.700	84.700	97.600	0.950
88.600	102.700	84.100	97.600	0.950
88.000	102.600	83.600	97.600	0.950
87.400	102.600	83.000	97.500	0.950
86.900	102.600	82.500	97.500	0.951
86.500	102.600	82.100	97.500	0.951
85.900	102.600	81.600	97.500	0.951
85.400	102.600	81.100	97.500	0.951
84.900	102.500	80.600	97.500	0.951
84.600	102.500	80.100	97.500	0.951
84.200	102.500	79.700	97.500	0.951
83.800	102.500	79.600	97.500	0.951
83.500	102.500	79.200	97.500	0.951
83.200	102.500	78.800	97.500	0.951
82.800	102.400	78.600	97.400	0.951
82.500	102.400	78.400	97.400	0.951
82.100	102.400	78.100	97.400	0.951
81.700	102.400	77.700	97.400	0.951
81.400	102.400	77.800	97.400	0.952
81.200	102.400	77.600	97.400	0.952
81.000	102.300	77.400	97.400	0.952
80.700	102.300	77.200	97.400	0.952
80.800	102.300	76.900	97.400	0.952
80.800	102.300	76.700	97.400	0.952
80.800	102.300	77.000	97.400	0.952
80.600	102.300	77.400	97.400	0.952
80.100	102.300	77.500	97.300	0.952
79.500	102.200	77.100	97.300	0.952
78.900	102.200	76.500	97.300	0.952
78.300	102.200	75.900	97.300	0.952
78.000	102.200	75.500	97.300	0.952
77.700	102.200	75.000	97.300	0.952
77.300	102.200	74.900	97.300	0.952
76.900	102.200	75.200	97.300	0.952
76.600	102.100	75.200	97.300	0.952
76.300	102.100	75.200	97.300	0.952
75.900	102.100	74.800	97.300	0.952
75.500	102.100	74.500	97.200	0.952
75.100	102.100	74.200	97.200	0.953
75.100	102.100	73.800	97.200	0.953
76.100	102.100	73.800	97.200	0.953
76.500	102.000	74.500	97.200	0.953
76.900	102.000	76.000	97.200	0.953
80.300	102.000	78.000	97.200	0.953
88.200	102.000	80.300	97.200	0.953
96.600	102.000	81.100	97.200	0.953
102.100	102.000	81.800	97.100	0.953
105.600	101.900	87.000	97.100	0.953
109.300	101.900	94.900	97.100	0.953
113.600	101.900	100.400	97.100	0.953
118.700	101.900	103.300	97.100	0.953
120.600	101.900	106.300	97.000	0.953
122.400	101.800	110.500	97.000	0.953
124.200	101.800	114.500	97.000	0.953
124.900	101.800	116.400	97.000	0.953
125.900	101.800	117.500	97.000	0.953
126.600	101.700	119.200	96.900	0.953
127.600	101.700	120.800	96.900	0.953
128.500	101.700	122.500	96.900	0.953
128.900	101.600	124.300	96.900	0.953
129.600	101.600	126.000	96.900	0.953
130.600	101.600	127.100	96.800	0.953
131.400	101.500	127.800	96.800	0.954
132.100	101.500	128.600	96.800	0.954
132.800	101.400	129.600	96.800	0.954
132.700	101.400	130.300	96.700	0.954
132.400	101.300	131.100	96.700	0.954
131.500	101.300	131.800	96.700	0.954
129.800	101.200	132.000	96.600	0.954
126.900	101.200	131.900	96.600	0.954
122.800	101.100	131.300	96.500	0.955
117.800	101.100	129.900	96.500	0.955
113.200	101.000	127.600	96.500	0.955
113.400	101.000	124.400	96.400	0.955
112.900	101.000	119.800	96.400	0.955
113.100	100.900	114.700	96.300	0.954
113.800	100.900	111.100	96.300	0.954
114.700	100.900	112.100	96.300	0.954
115.000	100.900	112.800	96.300	0.954
114.400	100.800	112.200	96.200	0.954
113.400	100.800	111.400	96.200	0.954
111.700	100.800	110.000	96.200	0.954
110.100	100.800	108.000	96.200	0.954
108.300	100.700	105.900	96.100	0.955
106.600	100.700	104.100	96.100	0.955
105.100	100.700	102.700	96.100	0.955
103.600	100.700	101.200	96.100	0.955
102.200	100.600	99.600	96.100	0.955
100.600	100.600	97.800	96.100	0.955
99.400	100.600	96.400	96.100	0.955
98.200	100.600	95.300	96.100	0.955
97.100	100.600	94.000	96.100	0.955
96.000	100.500	93.000	96.100	0.955
95.000	100.500	92.000	96.100	0.956
94.200	100.500	91.100	96.000	0.956
93.400	100.500	90.400	96.000	0.956
92.600	100.500	89.700	96.000	0.956
91.700	100.400	88.800	96.000	0.956
91.100	100.400	88.100	96.000	0.956
90.400	100.400	87.500	96.000	0.956
89.800	100.400	86.800	96.000	0.956
89.200	100.400	86.200	96.000	0.956
88.500	100.400	85.600	96.000	0.957
88.000	100.300	85.000	96.000	0.957
87.400	100.300	84.400	96.000	0.957
87.000	100.300	84.000	96.000	0.957
86.500	100.300	83.500	96.000	0.957
86.000	100.300	83.100	96.000	0.957
85.600	100.300	82.700	96.000	0.957
85.200	100.300	82.400	96.000	0.957
84.800	100.200	81.900	96.000	0.957
84.400	100.200	81.500	96.000	0.957
84.000	100.200	81.300	96.000	0.957
83.500	100.200	80.900	95.900	0.958
83.100	100.200	80.700	95.900	0.958
82.800	100.200	80.300	95.900	0.958
82.500	100.200	80.000	95.900	0.958
82.000	100.200	79.700	95.900	0.958
81.600	100.100	79.400	95.900	0.958
81.400	100.100	79.200	95.900	0.958
81.000	100.100	79.200	95.900	0.958
80.800	100.100	78.700	95.900	0.958
80.700	100.100	78.400	95.900	0.958
80.800	100.100	78.300	95.900	0.958
80.700	100.100	78.400	95.900	0.958
80.600	100.100	78.900	95.900	0.958
80.000	100.100	79.100	95.900	0.958
79.400	100.100	78.600	95.900	0.959
78.700	100.000	77.800	95.900	0.959
78.200	100.000	77.300	95.900	0.959
77.700	100.000	77.000	95.900	0.959
77.400	100.000	76.200	95.900	0.959
77.100	100.000	75.900	95.900	0.959
76.800	100.000	75.900	95.900	0.959
76.400	100.000	75.900	95.900	0.959
76.000	100.000	76.000	95.900	0.959
75.700	100.000	76.100	95.900	0.959
75.300	99.900	75.800	95.900	0.959
75.000	99.900	75.400	95.900	0.959
75.000	99.900	74.800	95.900	0.959
75.800	99.900	74.600	95.900	0.959
76.400	99.900	75.500	95.900	0.959
77.000	99.900	76.900	95.900	0.959
81.100	99.900	78.200	95.800	0.959
88.600	99.900	79.700	95.800	0.959
96.600	99.900	81.000	95.800	0.959
101.800	99.900	81.900	95.800	0.959
105.000	99.900	86.300	95.800	0.959
109.000	99.800	94.200	95.800	0.959
113.800	99.800	100.300	95.800	0.959
118.100	99.800	102.600	95.800	0.959
119.400	99.800	105.800	95.800	0.959
121.700	99.800	110.400	95.700	0.960
123.700	99.800	114.100	95.700	0.960
124.800	99.700	116.300	95.700	0.960
126.000	99.700	117.500	95.700	0.960
127.400	99.700	118.900	95.700	0.960
128.200	99.700	120.900	95.700	0.960
129.200	99.700	122.800	95.700	0.960
129.800	99.600	124.700	95.600	0.960
130.200	99.600	126.300	95.600	0.960
131.000	99.600	127.500	95.600	0.960
131.800	99.600	128.200	95.600	0.960
132.000	99.500	129.100	95.600	0.960
132.700	99.500	130.200	95.600	0.960
132.900	99.500	130.900	95.500	0.960
132.900	99.400	131.500	95.500	0.960
132.200	99.400	132.000	95.500	0.961
130.500	99.400	132.300	95.500	0.961
127.800	99.300	132.400	95.400	0.961
123.700	99.300	131.800	95.400	0.961
118.500	99.200	130.700	95.400	0.961
112.900	99.200	128.600	95.300	0.961
112.000	99.200	125.400	95.300	0.961
111.400	99.100	121.100	95.300	0.961
111.300	99.100	115.600	95.200	0.961
112.300	99.100	110.900	95.200	0.961
113.400	99.100	111.000	95.200	0.961
113.900	99.000	112.600	95.200	0.961
113.400	99.000	112.300	95.200	0.961
112.500	99.000	111.400	95.100	0.961
111.200	99.000	110.200	95.100	0.961
109.300	99.000	108.500	95.100	0.961
107.400	98.900	106.400	95.100	0.961
105.500	98.900	104.200	95.100	0.961
103.800	98.900	102.400	95.100	0.961
102.200	98.900	100.700	95.100	0.961
100.700	98.900	99.100	95.100	0.961
99.200	98.800	97.600	95.000	0.962
97.800	98.800	95.900	95.000	0.962
96.600	98.800	94.500	95.000	0.962
95.400	98.800	93.000	95.000	0.962
94.400	98.800	91.800	95.000	0.962
93.500	98.800	90.900	95.000	0.962
92.600	98.800	89.700	95.000	0.962
91.800	98.700	88.900	95.000	0.962
90.900	98.700	88.400	95.000	0.963
90.100	98.700	87.600	95.000	0.963
89.200	98.700	86.600	95.000	0.963
88.600	98.700	85.900	95.000	0.963
87.700	98.700	85.200	95.000	0.963
87.100	98.700	84.600	95.000	0.963
86.500	98.600	83.900	95.000	0.963
85.900	98.600	83.300	95.000	0.963
85.400	98.600	82.800	95.000	0.963
84.700	98.600	82.200	95.000	0.964
84.300	98.600	81.700	95.000	0.964
83.800	98.600	81.100	95.000	0.964
83.400	98.600	80.500	95.000	0.964
82.800	98.600	80.100	95.000	0.964
82.500	98.500	79.800	95.000	0.964
82.100	98.500	79.300	95.000	0.964
81.700	98.500	78.900	95.000	0.964
81.400	98.500	78.500	95.000	0.964
81.000	98.500	78.300	95.000	0.964
80.600	98.500	78.000	95.000	0.965
80.200	98.500	77.700	95.000	0.965
79.800	98.500	77.500	95.000	0.965
79.400	98.500	77.200	95.000	0.965
79.200	98.500	76.900	95.000	0.965
78.900	98.500	76.700	95.000	0.965
78.800	98.400	76.200	95.000	0.965
78.800	98.400	75.800	95.000	0.965
78.800	98.400	76.100	95.000	0.965
78.800	98.400	76.600	95.000	0.965
78.400	98.400	77.000	95.000	0.965
77.800	98.400	76.900	95.000	0.965
77.100	98.400	76.200	95.000	0.966
76.600	98.400	75.500	95.000	0.966
76.400	98.400	74.900	95.000	0.966
76.000	98.400	74.300	95.000	0.966
75.500	98.400	73.700	95.000	0.966
74.900	98.400	73.600	95.000	0.966
74.400	98.400	73.900	95.000	0.966
73.900	98.400	74.000	95.000	0.966
73.600	98.300	73.600	95.000	0.966
73.100	98.300	73.200	95.000	0.966
72.700	98.300	72.800	95.000	0.966
72.400	98.300	72.300	95.000	0.966
72.600	98.300	71.800	95.000	0.966
73.800	98.300	71.900	95.000	0.966
74.300	98.300	72.800	95.000	0.967
74.300	98.300	73.700	95.000	0.967
77.200	98.300	75.300	95.000	0.967
85.300	98.300	77.800	95.000	0.966
94.300	98.300	78.700	95.000	0.966
100.400	98.400	78.800	95.000	0.966
104.600	98.400	82.900	95.000	0.966
108.400	98.400	91.200	95.000	0.966
112.800	98.400	98.100	95.000	0.966
116.600	98.400	101.600	95.000	0.966
118.400	98.400	104.300	95.000	0.966
118.800	98.400	108.100	95.000	0.966
119.100	98.300	111.800	95.000	0.966
119.900	98.300	114.000	95.000	0.967
120.000	98.300	114.900	95.000	0.967
120.700	98.300	115.900	95.000	0.967
121.300	98.300	117.100	95.000	0.967
121.700	98.300	118.400	95.000	0.967
122.000	98.300	119.800	95.000	0.967
122.500	98.300	121.000	95.000	0.967
123.500	98.200	121.700	95.000	0.967
124.100	98.200	122.400	95.000	0.967
124.500	98.200	123.200	95.000	0.967
124.700	98.200	124.000	95.000	0.967
124.500	98.200	124.600	95.000	0.968
123.600	98.100	125.200	95.000	0.968
122.000	98.100	125.300	95.000	0.968
119.400	98.100	125.000	94.900	0.968
115.400	98.000	124.300	94.900	0.968
110.600	98.000	123.200	94.900	0.968
106.900	98.000	121.100	94.900	0.969
107.800	97.900	118.000	94.900	0.968
107.600	97.900	114.000	94.800	0.968
108.000	97.900	109.400	94.800	0.968
109.100	97.900	106.300	94.800	0.968
110.100	97.900	107.500	94.800	0.968
110.400	97.900	108.600	94.800	0.968
110.100	97.900	108.200	94.800	0.968
109.300	97.900	108.000	94.800	0.968
108.000	97.900	107.200	94.800	0.968
106.700	97.900	105.700	94.700	0.968
105.200	97.800	104.100	94.700	0.968
103.700	97.800	102.800	94.700	0.968
102.200	97.800	101.400	94.700	0.969
101.000	97.800	100.000	94.700	0.969
99.700	97.800	98.800	94.700	0.969
98.500	97.800	97.700	94.700	0.969
97.400	97.800	96.500	94.800	0.969
96.400	97.800	95.500	94.800	0.969
95.300	97.800	94.500	94.800	0.969
94.300	97.700	93.200	94.800	0.970
93.300	97.700	92.300	94.800	0.970
92.500	97.700	91.500	94.800	0.970
91.500	97.700	90.600	94.800	0.970
90.800	97.700	89.800	94.800	0.970
89.900	97.700	89.100	94.800	0.970
89.200	97.700	88.400	94.800	0.970
88.400	97.700	87.500	94.800	0.971
87.900	97.700	86.800	94.800	0.971
87.300	97.700	86.000	94.800	0.971
86.700	97.700	85.700	94.800	0.971
86.200	97.700	85.000	94.800	0.971
85.700	97.700	84.500	94.800	0.971
85.200	97.700	84.000	94.800	0.971
84.700	97.700	83.400	94.900	0.971
84.300	97.700	82.900	94.900	0.971
83.900	97.600	82.500	94.900	0.972
83.500	97.600	82.200	94.900	0.972
83.100	97.600	81.900	94.900	0.972
82.700	97.600	81.600	94.900	0.972
82.400	97.600	81.200	94.900	0.972
82.100	97.600	80.600	94.900	0.972
81.800	97.600	80.300	94.900	0.972
81.500	97.600	79.900	94.900	0.972
81.000	97.600	79.600	94.900	0.972
80.800	97.600	79.400	94.900	0.972
80.500	97.600	79.100	94.900	0.972
80.100	97.600	78.900	94.900	0.973
79.900	97.600	78.800	94.900	0.973
79.800	97.600	78.500	94.900	0.973
79.800	97.600	78.500	94.900	0.973
79.800	97.600	78.400	94.900	0.973
79.800	97.600	78.600	94.900	0.973
79.500	97.600	79.200	94.900	0.973
79.000	97.600	79.400	95.000	0.973
78.300	97.600	78.900	95.000	0.973
